RunType,Distractor,Target,corrAns,CurrTrialType,PrevTrialType,Prime_Congruent_Key_Analog_Column,Prime_Incongruent_Key_Analog_Column,Probe_Congruent_Key_Analog_Column,Probe_Incongruent_Key_Analog_Column,Probe_Congruent_Key_Digital_Column,Pract1.thisRepN,Pract1.thisTrialN,Pract1.thisN,Pract1.thisIndex,Pract2.thisRepN,Pract2.thisTrialN,Pract2.thisN,Pract2.thisIndex,Trials_1.thisRepN,Trials_1.thisTrialN,Trials_1.thisN,Trials_1.thisIndex,Trials_2.thisRepN,Trials_2.thisTrialN,Trials_2.thisN,Trials_2.thisIndex,Trials_3.thisRepN,Trials_3.thisTrialN,Trials_3.thisN,Trials_3.thisIndex,Trials_4.thisRepN,Trials_4.thisTrialN,Trials_4.thisN,Trials_4.thisIndex,Trials_5.thisRepN,Trials_5.thisTrialN,Trials_5.thisN,Trials_5.thisIndex,Trials_6.thisRepN,Trials_6.thisTrialN,Trials_6.thisN,Trials_6.thisIndex,Trials_7.thisRepN,Trials_7.thisTrialN,Trials_7.thisN,Trials_7.thisIndex,Trials_8.thisRepN,Trials_8.thisTrialN,Trials_8.thisN,Trials_8.thisIndex,Trials_9.thisRepN,Trials_9.thisTrialN,Trials_9.thisN,Trials_9.thisIndex,Computer_Name,Consent1_Image.started,Consent2_Image.started,Consent3_Image.started,Placement_Image.started,Instructions1_image.started,Instructions2_Image.started,Reminder1_Image.started,Instructions4_Txt.started,Interval_Text.started,Interval_Text.stopped,Interval_Blank.started,Interval_Blank.stopped,ISI_2.started,Distract.started,key_resp.started,Distract.stopped,Targ.started,Targ.stopped,key_resp.stopped,Response Key,Key Correct,PsychoPy Response Time (ms),Distractor_Onset_PsychoPy,Target_Onset_PsychoPy,Arduino Response Time (ms),Distractor_Onset_Arduino (ms),Target_Onset_Arduino (ms),Arduino Key Press Time (ms),key_resp.keys,key_resp.corr,Feedback,Message.started,Message.stopped,SecondPractice_Txt.started,SecondPractice_resp.started,SecondPractice_resp.keys,Reminder2_Image.started,Reminder2_resp.started,Reminder2_resp.keys,GoodJob_1.started,Ready_1.started,Eight_More.started,Ready_2.started,Seven_More.started,Ready_3.started,Six_More.started,Ready_4.started,Five_More.started,Ready_5.started,Four_More.started,Ready_6.started,Three_More.started,Ready_7.started,Two_More.started,Ready_8.started,One_More.started,Ready_9.started,Completion_Txt.started,Completion_resp.started,Completion_resp.keys,End_Response.started,Debrief1_Txt.started,End_Response.keys,Debrief2_Txt.started,Debrief2_resp.started,Debrief2_resp.keys,Debrief3_Txt.started,Debrief3_resp.started,Debrief3_resp.keys,participant,How old are you (in years)?,Are you male or female (M or F)?,Do you have normal vision and hearing (Y or N)?,date,expName,psychopyVersion,frameRate,
Practice,Visual_Stimuli/D_Right.png,Visual_Stimuli/T_Right.png,g,Congruent,None,1,0,1,0,7,0,0,0,0,,,,,,,,,,,,,,,,,,,,,,,,,,,,,,,,,,,,,,,,,psyc-danweiss23,347.52025819999994,377.9758630000001,402.69012169999996,410.39173860000005,428.95378400000004,498.29939360000003,512.6618137,524.5930688999999,536.3632089,538.1627556999999,538.1627556999999,538.3628037999999,0.00222259999986818,538.8298817,538.8629036,538.9625379000001,539.4630863,539.5958431000001,540.8624770000001,G,True,733.0783999998403,0.5099281999998766,1.1428094000000328,709,196628,197262,197971,None,0,Correct,540.8624770000001,541.0630869000001,,,,,,,,,,,,,,,,,,,,,,,,,,,,,,,,,,,,,19,20,F,Y,2022-11-10_12h03.02.739,Prime-Probe,2022.2.4,59.95387149126976,
Practice,Visual_Stimuli/D_Up.png,Visual_Stimuli/T_Down.png,n,Incongruent,Congruent,2,4,4,2,10,0,1,1,1,,,,,,,,,,,,,,,,,,,,,,,,,,,,,,,,,,,,,,,,,,,,,,,,,,,,,,0.009830099999817321,541.5293571,541.5628392000001,541.662362,542.1627761,542.2956212000001,543.5622251,J,False,132.93690000000424,0.509856099999979,1.1426274000000376,107,199327,199961,200068,None,0,Incorrect,543.5622251,543.7621196,,,,,,,,,,,,,,,,,,,,,,,,,,,,,,,,,,,,,19,20,F,Y,2022-11-10_12h03.02.739,Prime-Probe,2022.2.4,59.95387149126976,
Practice,Visual_Stimuli/D_Left.png,Visual_Stimuli/T_Left.png,f,Congruent,Incongruent,0,1,0,1,6,0,2,2,2,,,,,,,,,,,,,,,,,,,,,,,,,,,,,,,,,,,,,,,,,,,,,,,,,,,,,,0.008807599999954618,544.2290854,544.2622194,544.3620583,544.8622865,544.995351,546.2620489000001,F,True,616.2541999999576,0.5091946999998527,1.142266999999947,580,202028,202659,203239,None,0,Correct,546.2620489000001,546.4619149,,,,,,,,,,,,,,,,,,,,,,,,,,,,,,,,,,,,,19,20,F,Y,2022-11-10_12h03.02.739,Prime-Probe,2022.2.4,59.95387149126976,
Practice,Visual_Stimuli/D_Down.png,Visual_Stimuli/T_Down.png,n,Congruent,Congruent,4,2,4,2,10,0,3,3,3,,,,,,,,,,,,,,,,,,,,,,,,,,,,,,,,,,,,,,,,,,,,,,,,,,,,,,0.008656199999904857,546.9289317,546.9620360000001,547.0617817,547.562126,547.6950732,548.9615860000001,N,True,566.392199999882,0.5090127999999368,1.1420223999998598,532,204727,205360,205892,None,0,Correct,548.9615860000001,549.1615569,,,,,,,,,,,,,,,,,,,,,,,,,,,,,,,,,,,,,19,20,F,Y,2022-11-10_12h03.02.739,Prime-Probe,2022.2.4,59.95387149126976,
Practice,Visual_Stimuli/D_Left.png,Visual_Stimuli/T_Right.png,g,Incongruent,Congruent,0,1,1,0,7,0,4,4,4,,,,,,,,,,,,,,,,,,,,,,,,,,,,,,,,,,,,,,,,,,,,,,,,,,,,,,0.00830839999980526,549.6284832000001,549.6616994999999,549.7616192,550.2616783000001,550.3947651000001,551.6612188000001,G,True,832.8021000002082,0.5086775999998281,1.141942799999697,804,207426,208060,208864,None,0,Correct,551.6612188000001,551.8612106,,,,,,,,,,,,,,,,,,,,,,,,,,,,,,,,,,,,,19,20,F,Y,2022-11-10_12h03.02.739,Prime-Probe,2022.2.4,59.95387149126976,
Practice,Visual_Stimuli/D_Down.png,Visual_Stimuli/T_Up.png,j,Incongruent,Incongruent,4,2,2,4,8,0,5,5,5,,,,,,,,,,,,,,,,,,,,,,,,,,,,,,,,,,,,,,,,,,,,,,,,,,,,,,0.007939199999782431,552.3281025000001,552.3613057,552.4610402000001,552.9614981,553.0944819000001,554.3608961,J,True,433.23279999981423,0.5082863999998608,1.1414562999998452,412,210125,210758,211170,None,0,Correct,554.3608961,554.5609807000001,,,,,,,,,,,,,,,,,,,,,,,,,,,,,,,,,,,,,19,20,F,Y,2022-11-10_12h03.02.739,Prime-Probe,2022.2.4,59.95387149126976,
Practice,Visual_Stimuli/D_Right.png,Visual_Stimuli/T_Right.png,g,Congruent,Incongruent,1,0,1,0,7,0,6,6,6,,,,,,,,,,,,,,,,,,,,,,,,,,,,,,,,,,,,,,,,,,,,,,,,,,,,,,0.0076756999997087405,555.0277696,555.0610587000001,555.1607923000001,555.6613075,555.7941749000001,557.0604634000001,G,True,783.0271000000266,0.5080450999996629,1.141139499999781,760,212825,213457,214217,None,0,Correct,557.0604634000001,557.2606092000001,,,,,,,,,,,,,,,,,,,,,,,,,,,,,,,,,,,,,19,20,F,Y,2022-11-10_12h03.02.739,Prime-Probe,2022.2.4,59.95387149126976,
Practice,Visual_Stimuli/D_Down.png,Visual_Stimuli/T_Up.png,j,Incongruent,Congruent,4,2,2,4,8,0,7,7,7,,,,,,,,,,,,,,,,,,,,,,,,,,,,,,,,,,,,,,,,,,,,,,,,,,,,,,0.00730049999970106,557.7276199,557.7609845,557.8604773,558.3607868000001,558.4937053000001,559.7607912000001,J,True,433.1108999999742,0.5079626999995526,1.1407098999995924,395,215525,216159,216554,None,0,Correct,559.7607912000001,559.9603397999999,,,,,,,,,,,,,,,,,,,,,,,,,,,,,,,,,,,,,19,20,F,Y,2022-11-10_12h03.02.739,Prime-Probe,2022.2.4,59.95387149126976,
Practice,Visual_Stimuli/D_Left.png,Visual_Stimuli/T_Right.png,g,Incongruent,Incongruent,0,1,1,0,7,0,8,8,8,,,,,,,,,,,,,,,,,,,,,,,,,,,,,,,,,,,,,,,,,,,,,,,,,,,,,,0.007064699999546065,560.4276409000001,560.4605412000001,560.560217,561.0604880000001,561.1935102,562.4599515,G,True,499.75540000014007,0.5076384999995298,1.1403033999995387,469,218224,218858,219327,None,0,Correct,562.4599515,562.6599894999999,,,,,,,,,,,,,,,,,,,,,,,,,,,,,,,,,,,,,19,20,F,Y,2022-11-10_12h03.02.739,Prime-Probe,2022.2.4,59.95387149126976,
Practice,Visual_Stimuli/D_Up.png,Visual_Stimuli/T_Down.png,n,Incongruent,Incongruent,2,4,4,2,10,0,9,9,9,,,,,,,,,,,,,,,,,,,,,,,,,,,,,,,,,,,,,,,,,,,,,,,,,,,,,,0.00667589999966367,563.1270314000001,563.1602328000001,563.2598674999999,563.7601691,563.8932156999999,565.159615,N,True,466.41460000000734,0.5074311999994734,1.1400492999996459,433,220923,221556,221989,None,0,Correct,565.159615,565.3596157,,,,,,,,,,,,,,,,,,,,,,,,,,,,,,,,,,,,,19,20,F,Y,2022-11-10_12h03.02.739,Prime-Probe,2022.2.4,59.95387149126976,
Practice,Visual_Stimuli/D_Right.png,Visual_Stimuli/T_Right.png,g,Congruent,Incongruent,1,0,1,0,7,0,10,10,10,,,,,,,,,,,,,,,,,,,,,,,,,,,,,,,,,,,,,,,,,,,,,,,,,,,,,,0.006320499999446838,565.8264945999999,565.8597930999999,565.9595858,566.4600065,566.5927723,567.8592955000001,G,True,433.11949999997523,0.5068219999996018,1.139852899999596,396,223623,224257,224653,None,0,Correct,567.8592955000001,568.0593934000001,,,,,,,,,,,,,,,,,,,,,,,,,,,,,,,,,,,,,19,20,F,Y,2022-11-10_12h03.02.739,Prime-Probe,2022.2.4,59.95387149126976,
Practice,Visual_Stimuli/D_Down.png,Visual_Stimuli/T_Down.png,n,Congruent,Congruent,4,2,4,2,10,0,11,11,11,,,,,,,,,,,,,,,,,,,,,,,,,,,,,,,,,,,,,,,,,,,,,,,,,,,,,,0.006116999999449035,568.5263549000001,568.5597427,568.659279,569.159965,569.2925364,570.5590231000001,N,True,516.5839000001142,0.5067972999995618,1.1393865999993977,481,226323,226957,227438,None,0,Correct,570.5590231000001,570.7591956000001,,,,,,,,,,,,,,,,,,,,,,,,,,,,,,,,,,,,,19,20,F,Y,2022-11-10_12h03.02.739,Prime-Probe,2022.2.4,59.95387149126976,
Practice,Visual_Stimuli/D_Right.png,Visual_Stimuli/T_Right.png,g,Congruent,Congruent,1,0,1,0,7,0,12,12,12,,,,,,,,,,,,,,,,,,,,,,,,,,,,,,,,,,,,,,,,,,,,,,,,,,,,,,0.0058907999994062266,571.2264481,571.2594639000001,571.3588568,571.8595055000001,571.9922618,573.2589146,G,True,433.0953999999565,0.506593499999326,1.139095699999416,409,229022,229655,230064,None,0,Correct,573.2589146,573.4587587999999,,,,,,,,,,,,,,,,,,,,,,,,,,,,,,,,,,,,,19,20,F,Y,2022-11-10_12h03.02.739,Prime-Probe,2022.2.4,59.95387149126976,
Practice,Visual_Stimuli/D_Up.png,Visual_Stimuli/T_Up.png,j,Congruent,Congruent,2,4,2,4,8,0,13,13,13,,,,,,,,,,,,,,,,,,,,,,,,,,,,,,,,,,,,,,,,,,,,,,,,,,,,,,0.005471199999419696,573.9257392,573.9594396,574.0588654000001,574.5590941,574.6920434000001,,J,True,366.8081999999231,0.50655899999947,1.1388121999993928,337,231722,232354,232691,None,0,Correct,575.9750717,,,,,,,,,,,,,,,,,,,,,,,,,,,,,,,,,,,,,,19,20,F,Y,2022-11-10_12h03.02.739,Prime-Probe,2022.2.4,59.95387149126976,
Practice,Visual_Stimuli/D_Left.png,Visual_Stimuli/T_Left.png,f,Congruent,Congruent,0,1,0,1,6,0,14,14,14,,,,,,,,,,,,,,,,,,,,,,,,,,,,,,,,,,,,,,,,,,,,,,,,,,,,,,0.005930499999294625,576.6254537,576.6585494000001,576.7584222,577.2587952000001,577.3916291,578.6581698,F,True,399.6863999998368,0.5054812999992464,1.1384286999993947,371,234422,235055,235426,None,0,Correct,578.6581698,578.8580302,,,,,,,,,,,,,,,,,,,,,,,,,,,,,,,,,,,,,19,20,F,Y,2022-11-10_12h03.02.739,Prime-Probe,2022.2.4,59.95387149126976,
Practice,Visual_Stimuli/D_Up.png,Visual_Stimuli/T_Down.png,n,Incongruent,Congruent,2,4,4,2,10,0,15,15,15,,,,,,,,,,,,,,,,,,,,,,,,,,,,,,,,,,,,,,,,,,,,,,,,,,,,,,0.004717199999277,579.3249342000001,579.3582078,579.4579837000001,579.9583612000001,580.0912714000001,581.3579956000001,N,True,466.43519999997807,0.5051874999992378,1.1382130999993478,438,237121,237755,238193,None,0,Correct,581.3579956000001,582.0458547000001,,,,,,,,,,,,,,,,,,,,,,,,,,,,,,,,,,,,,19,20,F,Y,2022-11-10_12h03.02.739,Prime-Probe,2022.2.4,59.95387149126976,
,,,,,,,,,,,,,,,,,,,,,,,,,,,,,,,,,,,,,,,,,,,,,,,,,,,,,,,,,,,,,,,,,,,,,,,,,,,,,,,,,,,,,,,,,582.0458547000001,582.0458547000001,None,,,,,,,,,,,,,,,,,,,,,,,,,,,,,,,,,,19,20,F,Y,2022-11-10_12h03.02.739,Prime-Probe,2022.2.4,59.95387149126976,
,,,,,,,,,,,,,,,,,,,,,,,,,,,,,,,,,,,,,,,,,,,,,,,,,,,,,,,,,,,,,,,,,,,,,,,,,,,,,,,,,,,,,,,,,,,,587.3001434999999,587.3001434999999,None,,,,,,,,,,,,,,,,,,,,,,,,,,,,,,,19,20,F,Y,2022-11-10_12h03.02.739,Prime-Probe,2022.2.4,59.95387149126976,
Practice,Visual_Stimuli/D_Right.png,Visual_Stimuli/T_Left.png,f,Incongruent,Incongruent,1,0,0,1,6,,,,,0,0,0,0,,,,,,,,,,,,,,,,,,,,,,,,,,,,,,,,,,,,,,,,,,,,,,592.2065894,594.0063132000002,594.0063132000002,594.2063402000001,0.005732099999931961,594.6732906,594.7065542000003,594.8061960000002,595.3065724999999,595.4395901,596.7061122000002,F,True,400.06969999967623,0.5134804999997868,1.1462443000000349,379,252468,253101,253480,None,0,Correct,596.7061122000002,596.9060092000002,,,,,,,,,,,,,,,,,,,,,,,,,,,,,,,,,,,,,19,20,F,Y,2022-11-10_12h03.02.739,Prime-Probe,2022.2.4,59.95387149126976,
Practice,Visual_Stimuli/D_Down.png,Visual_Stimuli/T_Down.png,n,Congruent,Incongruent,4,2,4,2,10,,,,,0,1,1,1,,,,,,,,,,,,,,,,,,,,,,,,,,,,,,,,,,,,,,,,,,,,,,,,,,0.012534599999980856,597.3730102000002,597.4062916,597.5060308,598.0063440000001,598.1391197999999,599.4057767000002,N,True,433.0128000001423,0.5130742000001192,1.1459749999999076,404,255169,255801,256205,None,0,Correct,599.4057767000002,599.6058273000001,,,,,,,,,,,,,,,,,,,,,,,,,,,,,,,,,,,,,19,20,F,Y,2022-11-10_12h03.02.739,Prime-Probe,2022.2.4,59.95387149126976,
Practice,Visual_Stimuli/D_Left.png,Visual_Stimuli/T_Left.png,f,Congruent,Congruent,0,1,0,1,6,,,,,0,2,2,2,,,,,,,,,,,,,,,,,,,,,,,,,,,,,,,,,,,,,,,,,,,,,,,,,,0.012335800000073505,600.0727107,600.1061155999998,600.2056083,600.7060227,600.8389218,602.1055361000001,F,True,433.01949999977296,0.5129108000000997,1.1456092000003082,411,257868,258502,258913,None,0,Correct,602.1055361000001,602.3053075999999,,,,,,,,,,,,,,,,,,,,,,,,,,,,,,,,,,,,,19,20,F,Y,2022-11-10_12h03.02.739,Prime-Probe,2022.2.4,59.95387149126976,
Practice,Visual_Stimuli/D_Down.png,Visual_Stimuli/T_Up.png,j,Incongruent,Congruent,4,2,2,4,8,,,,,0,3,3,3,,,,,,,,,,,,,,,,,,,,,,,,,,,,,,,,,,,,,,,,,,,,,,,,,,0.011807700000645127,602.7726212999999,602.8058979999998,602.9054278000001,603.4058106,603.5386443999998,604.8052195000002,J,True,416.37589999982083,0.5130636000003506,1.1452806000006603,387,260567,261200,261587,None,0,Correct,604.8052195000002,605.0050776,,,,,,,,,,,,,,,,,,,,,,,,,,,,,,,,,,,,,19,20,F,Y,2022-11-10_12h03.02.739,Prime-Probe,2022.2.4,59.95387149126976,
Practice,Visual_Stimuli/D_Left.png,Visual_Stimuli/T_Left.png,f,Congruent,Incongruent,0,1,0,1,6,,,,,0,4,4,4,,,,,,,,,,,,,,,,,,,,,,,,,,,,,,,,,,,,,,,,,,,,,,,,,,0.011605100000451785,605.4719591999999,605.5056488000002,605.6049317,606.1051617,606.2384663999999,607.5047342999999,F,True,332.9572000002372,0.5124589000006381,1.1450657000004867,297,263266,263899,264196,None,0,Correct,607.5047342999999,607.7048670000001,,,,,,,,,,,,,,,,,,,,,,,,,,,,,,,,,,,,,19,20,F,Y,2022-11-10_12h03.02.739,Prime-Probe,2022.2.4,59.95387149126976,
Practice,Visual_Stimuli/D_Up.png,Visual_Stimuli/T_Up.png,j,Congruent,Congruent,2,4,2,4,8,,,,,0,5,5,5,,,,,,,,,,,,,,,,,,,,,,,,,,,,,,,,,,,,,,,,,,,,,,,,,,0.011415500001021428,608.1716520000002,608.2050517,608.3047818000002,608.8054267,608.9384455000002,610.2048821999999,J,True,366.7171000001872,0.5117990000007921,1.1445892000006097,330,265967,266599,266929,None,0,Correct,610.2048821999999,610.4045128,,,,,,,,,,,,,,,,,,,,,,,,,,,,,,,,,,,,,19,20,F,Y,2022-11-10_12h03.02.739,Prime-Probe,2022.2.4,59.95387149126976,
Practice,Visual_Stimuli/D_Left.png,Visual_Stimuli/T_Right.png,g,Incongruent,Congruent,0,1,1,0,7,,,,,0,6,6,6,,,,,,,,,,,,,,,,,,,,,,,,,,,,,,,,,,,,,,,,,,,,,,,,,,0.011004100001173356,610.8713165000001,610.9045483000002,611.0048310999998,611.5046367000002,611.6376944000001,612.9044876,G,True,349.8290000002271,0.5112829000008787,1.144393000000946,327,268666,269300,269627,None,0,Correct,612.9044876,613.1042202000001,,,,,,,,,,,,,,,,,,,,,,,,,,,,,,,,,,,,,19,20,F,Y,2022-11-10_12h03.02.739,Prime-Probe,2022.2.4,59.95387149126976,
Practice,Visual_Stimuli/D_Down.png,Visual_Stimuli/T_Up.png,j,Incongruent,Incongruent,4,2,2,4,8,,,,,0,7,7,7,,,,,,,,,,,,,,,,,,,,,,,,,,,,,,,,,,,,,,,,,,,,,,,,,,0.010716400001001603,613.5710581000001,613.6042983,613.7040989,614.2044432999999,614.3373571999998,615.6039499999999,J,True,316.5076999998746,0.5111143000012817,1.1440626000012344,287,271365,271998,272285,None,0,Correct,615.6039499999999,615.8038862000001,,,,,,,,,,,,,,,,,,,,,,,,,,,,,,,,,,,,,19,20,F,Y,2022-11-10_12h03.02.739,Prime-Probe,2022.2.4,59.95387149126976,
Practice,Visual_Stimuli/D_Right.png,Visual_Stimuli/T_Left.png,f,Incongruent,Incongruent,1,0,0,1,6,,,,,0,8,8,8,,,,,,,,,,,,,,,,,,,,,,,,,,,,,,,,,,,,,,,,,,,,,,,,,,0.010378500001479551,616.2708212999999,616.3040251999998,616.4040035,616.9039823999999,617.0370098000001,618.3034964000001,F,True,383.2075000000259,0.5108182000012675,1.1437363000013647,361,274066,274698,275059,None,0,Correct,618.3034964000001,618.5033452999999,,,,,,,,,,,,,,,,,,,,,,,,,,,,,,,,,,,,,19,20,F,Y,2022-11-10_12h03.02.739,Prime-Probe,2022.2.4,59.95387149126976,
Practice,Visual_Stimuli/D_Up.png,Visual_Stimuli/T_Up.png,j,Congruent,Incongruent,2,4,2,4,8,,,,,0,9,9,9,,,,,,,,,,,,,,,,,,,,,,,,,,,,,,,,,,,,,,,,,,,,,,,,,,0.00984010000138369,618.9706795,619.0038375000001,619.1034326000001,619.6038203999999,619.7366548000002,621.0032475999999,J,True,333.3572000001368,0.5107213000014781,1.1436082000013812,300,276765,277399,277699,None,0,Correct,621.0032475999999,621.2031847000001,,,,,,,,,,,,,,,,,,,,,,,,,,,,,,,,,,,,,19,20,F,Y,2022-11-10_12h03.02.739,Prime-Probe,2022.2.4,59.95387149126976,
Practice,Visual_Stimuli/D_Left.png,Visual_Stimuli/T_Right.png,g,Incongruent,Congruent,0,1,1,0,7,,,,,0,10,10,10,,,,,,,,,,,,,,,,,,,,,,,,,,,,,,,,,,,,,,,,,,,,,,,,,,0.009677600001850806,621.6701217000002,621.7033557000002,621.8030344000001,622.3036726000003,622.4363844000002,623.7029117999998,G,True,382.8816000000188,0.5102151000019148,1.143307300001652,347,279464,280097,280444,None,0,Correct,623.7029117999998,623.9029016000002,,,,,,,,,,,,,,,,,,,,,,,,,,,,,,,,,,,,,19,20,F,Y,2022-11-10_12h03.02.739,Prime-Probe,2022.2.4,59.95387149126976,
Practice,Visual_Stimuli/D_Up.png,Visual_Stimuli/T_Down.png,n,Incongruent,Incongruent,2,4,4,2,10,,,,,0,11,11,11,,,,,,,,,,,,,,,,,,,,,,,,,,,,,,,,,,,,,,,,,,,,,,,,,,0.009394300001986267,624.3699303000001,624.4030605999999,624.5027393000003,625.003406,625.1360275,626.4026473000001,N,True,332.9404999999497,0.5098729000019375,1.143220300001758,306,282165,282796,283102,None,0,Correct,626.4026473000001,626.6025112999998,,,,,,,,,,,,,,,,,,,,,,,,,,,,,,,,,,,,,19,20,F,Y,2022-11-10_12h03.02.739,Prime-Probe,2022.2.4,59.95387149126976,
Practice,Visual_Stimuli/D_Right.png,Visual_Stimuli/T_Left.png,f,Incongruent,Incongruent,1,0,0,1,6,,,,,0,12,12,12,,,,,,,,,,,,,,,,,,,,,,,,,,,,,,,,,,,,,,,,,,,,,,,,,,0.009026300002005883,627.0696985000002,627.1028361000001,627.2024832999998,627.7027482000001,627.8358706000001,629.1022406999998,F,True,316.2338999995882,0.509664700002304,1.1426529000023038,284,284864,285498,285782,None,0,Correct,629.1022406999998,629.3022434000002,,,,,,,,,,,,,,,,,,,,,,,,,,,,,,,,,,,,,19,20,F,Y,2022-11-10_12h03.02.739,Prime-Probe,2022.2.4,59.95387149126976,
Practice,Visual_Stimuli/D_Down.png,Visual_Stimuli/T_Down.png,n,Congruent,Incongruent,4,2,4,2,10,,,,,0,13,13,13,,,,,,,,,,,,,,,,,,,,,,,,,,,,,,,,,,,,,,,,,,,,,,,,,,0.008738000002267654,629.7691823000002,629.8025952999999,629.9022341000002,630.4024932999998,630.5354416000002,631.8020475000001,N,True,383.10580000006667,0.5095540000024812,1.1421916000022065,350,287563,288197,288547,None,0,Correct,631.8020475000001,632.0019058,,,,,,,,,,,,,,,,,,,,,,,,,,,,,,,,,,,,,19,20,F,Y,2022-11-10_12h03.02.739,Prime-Probe,2022.2.4,59.95387149126976,
Practice,Visual_Stimuli/D_Right.png,Visual_Stimuli/T_Left.png,f,Incongruent,Congruent,1,0,0,1,6,,,,,0,14,14,14,,,,,,,,,,,,,,,,,,,,,,,,,,,,,,,,,,,,,,,,,,,,,,,,,,0.008417600002303516,632.4690060999999,632.5022162000002,632.6019272999999,633.1020952000001,633.2353187000001,634.5016997,F,True,366.25039999989895,0.5091361000022516,1.141985800002658,339,290262,290895,291234,None,0,Correct,634.5016997,634.7017259000002,,,,,,,,,,,,,,,,,,,,,,,,,,,,,,,,,,,,,19,20,F,Y,2022-11-10_12h03.02.739,Prime-Probe,2022.2.4,59.95387149126976,
Practice,Visual_Stimuli/D_Up.png,Visual_Stimuli/T_Up.png,j,Congruent,Incongruent,2,4,2,4,8,,,,,0,15,15,15,,,,,,,,,,,,,,,,,,,,,,,,,,,,,,,,,,,,,,,,,,,,,,,,,,0.008260500002506888,635.1688514,635.2020730000002,635.3015333999999,635.8028575999999,635.9351294,637.2014160000001,J,True,365.7555999998294,0.5088294000024689,1.1423240000026453,335,292963,293596,293931,None,0,Correct,637.2014160000001,637.8985488999999,,,,,,,,,,,,,,,,,,,,,,,,,,,,,,,,,,,,,19,20,F,Y,2022-11-10_12h03.02.739,Prime-Probe,2022.2.4,59.95387149126976,
,,,,,,,,,,,,,,,,,,,,,,,,,,,,,,,,,,,,,,,,,,,,,,,,,,,,,,,,,,,,,,,,,,,,,,,,,,,,,,,,,,,,,,,,,,,,671.3211705000001,671.3211705000001,None,637.8985488999999,637.8985488999999,,,,,,,,,,,,,,,,,,,,,,,,,,,,,19,20,F,Y,2022-11-10_12h03.02.739,Prime-Probe,2022.2.4,59.95387149126976,
Test,Visual_Stimuli/D_Left.png,Visual_Stimuli/T_Left.png,f,Congruent,None,0,1,0,1,6,,,,,,,,,0,0,0,0,,,,,,,,,,,,,,,,,,,,,,,,,,,,,,,,,,,,,,,,,,674.0304629999998,675.8301669999998,675.8301669999998,676.0301873000001,0.0061760999997204635,676.4973181000003,676.5304339000002,676.6301394,677.1306962000001,677.2634666000001,678.5298903,F,True,349.86560000015743,0.5134979999997995,1.1462686999998368,314,334289,334923,335237,None,0,Correct,678.5298903,678.7300014,,,,,,,,,,,,,,,,,,,,,,,,,,,,,,,,,,,,,19,20,F,Y,2022-11-10_12h03.02.739,Prime-Probe,2022.2.4,59.95387149126976,
Test,Visual_Stimuli/D_Down.png,Visual_Stimuli/T_Up.png,j,Incongruent,Congruent,4,2,2,4,8,,,,,,,,,0,1,1,1,,,,,,,,,,,,,,,,,,,,,,,,,,,,,,,,,,,,,,,,,,,,,,0.01263699999981327,679.1968460999999,679.2301851,679.3300378000001,679.8301205999999,679.9633510000001,681.2297747999999,J,True,416.616200000135,0.5131639999999607,1.1459980999998152,385,336987,337621,338006,None,0,Correct,681.2297747999999,681.4296510000001,,,,,,,,,,,,,,,,,,,,,,,,,,,,,,,,,,,,,19,20,F,Y,2022-11-10_12h03.02.739,Prime-Probe,2022.2.4,59.95387149126976,
Test,Visual_Stimuli/D_Left.png,Visual_Stimuli/T_Left.png,f,Congruent,Incongruent,0,1,0,1,6,,,,,,,,,0,2,2,2,,,,,,,,,,,,,,,,,,,,,,,,,,,,,,,,,,,,,,,,,,,,,,0.012318500000219501,681.8966315,681.9300408000001,682.0295027999998,682.5297610999999,682.6628278000001,683.9293298999999,F,True,316.2768000001961,0.513354100000015,1.1459061000000474,280,339689,340321,340601,None,0,Correct,683.9293298999999,684.1292713,,,,,,,,,,,,,,,,,,,,,,,,,,,,,,,,,,,,,19,20,F,Y,2022-11-10_12h03.02.739,Prime-Probe,2022.2.4,59.95387149126976,
Test,Visual_Stimuli/D_Up.png,Visual_Stimuli/T_Up.png,j,Congruent,Congruent,2,4,2,4,8,,,,,,,,,0,3,3,3,,,,,,,,,,,,,,,,,,,,,,,,,,,,,,,,,,,,,,,,,,,,,,0.011925600000267877,684.5962247,684.6294642,684.7291963,685.2295679000001,685.3625376000002,686.6290316000002,J,True,316.57250000034765,0.5124375000004875,1.1452978000002076,278,342388,343022,343300,None,0,Correct,686.6290316000002,686.8288512000001,,,,,,,,,,,,,,,,,,,,,,,,,,,,,,,,,,,,,19,20,F,Y,2022-11-10_12h03.02.739,Prime-Probe,2022.2.4,59.95387149126976,
Test,Visual_Stimuli/D_Left.png,Visual_Stimuli/T_Right.png,g,Incongruent,Congruent,0,1,1,0,7,,,,,,,,,0,4,4,4,,,,,,,,,,,,,,,,,,,,,,,,,,,,,,,,,,,,,,,,,,,,,,0.01151860000072702,687.2959185000002,687.3292474000002,687.4291759999999,687.9291999,688.0621220999999,689.3287688000003,G,True,382.9819000002317,0.5122864000004483,1.1451585000004343,355,345086,345720,346075,None,0,Correct,689.3287688000003,689.5287412999999,,,,,,,,,,,,,,,,,,,,,,,,,,,,,,,,,,,,,19,20,F,Y,2022-11-10_12h03.02.739,Prime-Probe,2022.2.4,59.95387149126976,
Test,Visual_Stimuli/D_Up.png,Visual_Stimuli/T_Up.png,j,Congruent,Incongruent,2,4,2,4,8,,,,,,,,,0,5,5,5,,,,,,,,,,,,,,,,,,,,,,,,,,,,,,,,,,,,,,,,,,,,,,0.011377700000593904,689.9956804999999,690.0288951,690.1286312999998,690.6287080999998,690.7618049999999,692.0283394,J,True,332.96999999993204,0.5118473000006816,1.144868500000939,303,347788,348419,348722,None,0,Correct,692.0283394,692.2285531,,,,,,,,,,,,,,,,,,,,,,,,,,,,,,,,,,,,,19,20,F,Y,2022-11-10_12h03.02.739,Prime-Probe,2022.2.4,59.95387149126976,
Test,Visual_Stimuli/D_Right.png,Visual_Stimuli/T_Left.png,f,Incongruent,Congruent,1,0,0,1,6,,,,,,,,,0,6,6,6,,,,,,,,,,,,,,,,,,,,,,,,,,,,,,,,,,,,,,,,,,,,,,0.011379100000795006,692.6952933999999,692.7290326999998,692.8282714,693.3286605999999,693.4615148999999,694.7280716000002,F,True,333.37889999984327,0.5119381000008616,1.144368600001144,306,350487,351121,351427,None,0,Correct,694.7280716000002,694.929273,,,,,,,,,,,,,,,,,,,,,,,,,,,,,,,,,,,,,19,20,F,Y,2022-11-10_12h03.02.739,Prime-Probe,2022.2.4,59.95387149126976,
Test,Visual_Stimuli/D_Up.png,Visual_Stimuli/T_Down.png,n,Incongruent,Incongruent,2,4,4,2,10,,,,,,,,,0,7,7,7,,,,,,,,,,,,,,,,,,,,,,,,,,,,,,,,,,,,,,,,,,,,,,0.011920800001007592,695.3951522999998,695.4282433000001,695.5282110999999,696.0280664,696.1618472000002,697.4278178000002,N,True,366.35599999999613,0.5111576000012974,1.14421510000102,337,353186,353819,354156,None,0,Correct,697.4278178000002,697.6279050999999,,,,,,,,,,,,,,,,,,,,,,,,,,,,,,,,,,,,,19,20,F,Y,2022-11-10_12h03.02.739,Prime-Probe,2022.2.4,59.95387149126976,
Test,Visual_Stimuli/D_Left.png,Visual_Stimuli/T_Left.png,f,Congruent,Incongruent,0,1,0,1,6,,,,,,,,,0,8,8,8,,,,,,,,,,,,,,,,,,,,,,,,,,,,,,,,,,,,,,,,,,,,,,0.010541400001329748,698.0946256,698.1279158,698.2279391,698.7281518000002,698.8608904999999,700.1274059,F,True,299.45109999971464,0.5108771000013803,1.1439712000014879,277,355884,356518,356795,None,0,Correct,700.1274059,700.3273637999998,,,,,,,,,,,,,,,,,,,,,,,,,,,,,,,,,,,,,19,20,F,Y,2022-11-10_12h03.02.739,Prime-Probe,2022.2.4,59.95387149126976,
Test,Visual_Stimuli/D_Down.png,Visual_Stimuli/T_Up.png,j,Incongruent,Congruent,4,2,2,4,8,,,,,,,,,0,9,9,9,,,,,,,,,,,,,,,,,,,,,,,,,,,,,,,,,,,,,,,,,,,,,,0.010028100001363782,700.7945050000001,700.827603,700.9274173000001,701.4277156999999,701.5605966,702.8271698000001,J,True,283.1130999998095,0.5106266000016149,1.1435254000016357,246,358586,359220,359466,None,0,Correct,702.8271698000001,703.0273137000001,,,,,,,,,,,,,,,,,,,,,,,,,,,,,,,,,,,,,19,20,F,Y,2022-11-10_12h03.02.739,Prime-Probe,2022.2.4,59.95387149126976,
Test,Visual_Stimuli/D_Left.png,Visual_Stimuli/T_Left.png,f,Congruent,Incongruent,0,1,0,1,6,,,,,,,,,0,10,10,10,,,,,,,,,,,,,,,,,,,,,,,,,,,,,,,,,,,,,,,,,,,,,,0.010006300001805357,703.4941897000001,703.5273875999999,703.6269822000002,704.1277600999999,704.2603037000001,705.5269206999999,F,True,299.72749999978987,0.5103566000016144,1.1431917000018075,277,361285,361918,362195,None,0,Correct,705.5269206999999,705.7267386999999,,,,,,,,,,,,,,,,,,,,,,,,,,,,,,,,,,,,,19,20,F,Y,2022-11-10_12h03.02.739,Prime-Probe,2022.2.4,59.95387149126976,
Test,Visual_Stimuli/D_Up.png,Visual_Stimuli/T_Down.png,n,Incongruent,Congruent,2,4,4,2,10,,,,,,,,,0,11,11,11,,,,,,,,,,,,,,,,,,,,,,,,,,,,,,,,,,,,,,,,,,,,,,0.009371100001771993,706.1939085000001,706.2270306000003,706.3268470999999,706.8271731000002,706.9600085,708.2268056,N,True,299.9358000001848,0.5099580000019159,1.142824600001859,279,363983,364617,364896,None,0,Correct,708.2268056,708.4264865000002,,,,,,,,,,,,,,,,,,,,,,,,,,,,,,,,,,,,,19,20,F,Y,2022-11-10_12h03.02.739,Prime-Probe,2022.2.4,59.95387149126976,
Test,Visual_Stimuli/D_Left.png,Visual_Stimuli/T_Left.png,f,Congruent,Incongruent,0,1,0,1,6,,,,,,,,,0,12,12,12,,,,,,,,,,,,,,,,,,,,,,,,,,,,,,,,,,,,,,,,,,,,,,0.00912800000196512,708.8935005999999,708.9267619999998,709.0264715000001,709.5268985999999,709.6596735999999,710.9265956000002,F,True,300.04730000018753,0.5097996000022249,1.1425662000019656,267,366684,367316,367583,None,0,Correct,710.9265956000002,711.1262459000002,,,,,,,,,,,,,,,,,,,,,,,,,,,,,,,,,,,,,19,20,F,Y,2022-11-10_12h03.02.739,Prime-Probe,2022.2.4,59.95387149126976,
Test,Visual_Stimuli/D_Down.png,Visual_Stimuli/T_Up.png,j,Incongruent,Congruent,4,2,2,4,8,,,,,,,,,0,13,13,13,,,,,,,,,,,,,,,,,,,,,,,,,,,,,,,,,,,,,,,,,,,,,,0.008902800002033473,711.5930440999998,711.6267252,711.7262524,712.2264553000002,712.3594642999999,713.6259385999999,J,True,366.3746000001993,0.5097170000021833,1.1422043000020494,328,369384,370018,370346,None,0,Correct,713.6259385999999,713.8258455000002,,,,,,,,,,,,,,,,,,,,,,,,,,,,,,,,,,,,,19,20,F,Y,2022-11-10_12h03.02.739,Prime-Probe,2022.2.4,59.95387149126976,
Test,Visual_Stimuli/D_Right.png,Visual_Stimuli/T_Right.png,g,Congruent,Incongruent,1,0,1,0,7,,,,,,,,,0,14,14,14,,,,,,,,,,,,,,,,,,,,,,,,,,,,,,,,,,,,,,,,,,,,,,0.008494300002439559,714.2927403000001,714.3260475999998,714.4261300000001,714.9260879000001,715.0591271999999,716.3256039999999,G,True,499.8921999999766,0.5090127000025859,1.1418967000022349,466,372082,372716,373182,None,0,Correct,716.3256039999999,716.5258090999998,,,,,,,,,,,,,,,,,,,,,,,,,,,,,,,,,,,,,19,20,F,Y,2022-11-10_12h03.02.739,Prime-Probe,2022.2.4,59.95387149126976,
Test,Visual_Stimuli/D_Down.png,Visual_Stimuli/T_Down.png,n,Congruent,Congruent,4,2,4,2,10,,,,,,,,,0,15,15,15,,,,,,,,,,,,,,,,,,,,,,,,,,,,,,,,,,,,,,,,,,,,,,0.008448100002624415,716.9928069,717.0260231,717.1255085999999,717.6257235,717.7589866000001,719.0254783000003,N,True,299.77020000023913,0.509073000002445,1.1416425000024901,279,374781,375415,375694,None,0,Correct,719.0254783000003,719.2251908999999,,,,,,,,,,,,,,,,,,,,,,,,,,,,,,,,,,,,,19,20,F,Y,2022-11-10_12h03.02.739,Prime-Probe,2022.2.4,59.95387149126976,
Test,Visual_Stimuli/D_Right.png,Visual_Stimuli/T_Left.png,f,Incongruent,Congruent,1,0,0,1,6,,,,,,,,,0,16,16,16,,,,,,,,,,,,,,,,,,,,,,,,,,,,,,,,,,,,,,,,,,,,,,0.00782640000261381,719.6921421,719.725439,719.8256389000001,720.3259019,720.4588624,721.7250043000001,F,True,349.7138000002451,0.5085153000027276,1.1413789000025645,313,377483,378116,378429,None,0,Correct,721.7250043000001,721.9251241,,,,,,,,,,,,,,,,,,,,,,,,,,,,,,,,,,,,,19,20,F,Y,2022-11-10_12h03.02.739,Prime-Probe,2022.2.4,59.95387149126976,
Test,Visual_Stimuli/D_Up.png,Visual_Stimuli/T_Down.png,n,Incongruent,Incongruent,2,4,4,2,10,,,,,,,,,0,17,17,17,,,,,,,,,,,,,,,,,,,,,,,,,,,,,,,,,,,,,,,,,,,,,,0.0077593000028173265,722.3921379000001,722.4250439999998,722.5248844999999,723.0251948000002,723.1580855999998,724.4247717999999,N,True,316.2373000000116,0.507995300003131,1.1410661000027176,288,380182,380816,381104,None,0,Correct,724.4247717999999,724.6247368000002,,,,,,,,,,,,,,,,,,,,,,,,,,,,,,,,,,,,,19,20,F,Y,2022-11-10_12h03.02.739,Prime-Probe,2022.2.4,59.95387149126976,
Test,Visual_Stimuli/D_Left.png,Visual_Stimuli/T_Right.png,g,Incongruent,Incongruent,0,1,1,0,7,,,,,,,,,0,18,18,18,,,,,,,,,,,,,,,,,,,,,,,,,,,,,,,,,,,,,,,,,,,,,,0.0074030000032507814,725.0918024999999,725.1249795000001,725.2249650000001,725.7248953999999,725.8578415,727.1243204,G,True,349.63840000000346,0.5079962000031628,1.1408217000030163,324,382880,383514,383838,None,0,Correct,727.1243204,727.3242351000001,,,,,,,,,,,,,,,,,,,,,,,,,,,,,,,,,,,,,19,20,F,Y,2022-11-10_12h03.02.739,Prime-Probe,2022.2.4,59.95387149126976,
Test,Visual_Stimuli/D_Down.png,Visual_Stimuli/T_Down.png,n,Congruent,Incongruent,4,2,4,2,10,,,,,,,,,0,19,19,19,,,,,,,,,,,,,,,,,,,,,,,,,,,,,,,,,,,,,,,,,,,,,,0.006882600003336847,727.7917746,727.8246219,727.9245220999999,728.4246025999998,728.5575021000002,729.8245211000001,N,True,366.7091999996046,0.5075423000034789,1.1403305000035289,345,385581,386213,386558,None,0,Correct,729.8245211000001,730.0240903000001,,,,,,,,,,,,,,,,,,,,,,,,,,,,,,,,,,,,,19,20,F,Y,2022-11-10_12h03.02.739,Prime-Probe,2022.2.4,59.95387149126976,
Test,Visual_Stimuli/D_Left.png,Visual_Stimuli/T_Right.png,g,Incongruent,Congruent,0,1,1,0,7,,,,,,,,,0,20,20,20,,,,,,,,,,,,,,,,,,,,,,,,,,,,,,,,,,,,,,,,,,,,,,0.006752800003596349,730.4910370999999,730.5242068999999,730.6241938999999,731.1242921,731.2574695999999,732.5238427000002,G,True,316.4341000001514,0.5072704000035628,1.139999800003352,287,388281,388914,389201,None,0,Correct,732.5238427000002,732.7235324000001,,,,,,,,,,,,,,,,,,,,,,,,,,,,,,,,,,,,,19,20,F,Y,2022-11-10_12h03.02.739,Prime-Probe,2022.2.4,59.95387149126976,
Test,Visual_Stimuli/D_Up.png,Visual_Stimuli/T_Down.png,n,Incongruent,Incongruent,2,4,4,2,10,,,,,,,,,0,21,21,21,,,,,,,,,,,,,,,,,,,,,,,,,,,,,,,,,,,,,,,,,,,,,,0.006167500003812165,733.1906507000001,733.2238929000002,733.3235937000002,733.8238426999999,733.9569654,735.2235076,N,True,366.5110000001732,0.5068234000036682,1.139786500003538,340,390980,391614,391954,None,0,Correct,735.2235076,735.4233415000001,,,,,,,,,,,,,,,,,,,,,,,,,,,,,,,,,,,,,19,20,F,Y,2022-11-10_12h03.02.739,Prime-Probe,2022.2.4,59.95387149126976,
Test,Visual_Stimuli/D_Left.png,Visual_Stimuli/T_Left.png,f,Congruent,Incongruent,0,1,0,1,6,,,,,,,,,0,22,22,22,,,,,,,,,,,,,,,,,,,,,,,,,,,,,,,,,,,,,,,,,,,,,,0.005977900003927061,735.8904226000002,735.9236045,736.0233786000001,736.5234983000003,736.6566694999999,737.9231883999998,F,True,349.818900000173,0.5065786000036496,1.1394983000036518,324,393679,394312,394636,None,0,Correct,737.9231883999998,738.1229602999999,,,,,,,,,,,,,,,,,,,,,,,,,,,,,,,,,,,,,19,20,F,Y,2022-11-10_12h03.02.739,Prime-Probe,2022.2.4,59.95387149126976,
Test,Visual_Stimuli/D_Up.png,Visual_Stimuli/T_Up.png,j,Congruent,Congruent,2,4,2,4,8,,,,,,,,,0,23,23,23,,,,,,,,,,,,,,,,,,,,,,,,,,,,,,,,,,,,,,,,,,,,,,0.005615400003989635,738.5902116,738.6232425000001,738.7230016000001,739.2232511999998,739.356286,740.6229027000002,J,True,349.67850000020917,0.5062098000039441,1.1392195000039465,315,396379,397011,397326,None,0,Correct,740.6229027000002,740.8228889,,,,,,,,,,,,,,,,,,,,,,,,,,,,,,,,,,,,,19,20,F,Y,2022-11-10_12h03.02.739,Prime-Probe,2022.2.4,59.95387149126976,
Test,Visual_Stimuli/D_Right.png,Visual_Stimuli/T_Right.png,g,Congruent,Congruent,1,0,1,0,7,,,,,,,,,0,24,24,24,,,,,,,,,,,,,,,,,,,,,,,,,,,,,,,,,,,,,,,,,,,,,,0.005527800004074379,741.2896238999999,741.3230980999999,741.4232015999999,741.9229115,742.0560854000003,743.3224483000001,G,True,383.0333000000792,0.5060996000042906,1.1389609000043492,350,399079,399713,400063,None,0,Correct,743.3224483000001,743.5224570000003,,,,,,,,,,,,,,,,,,,,,,,,,,,,,,,,,,,,,19,20,F,Y,2022-11-10_12h03.02.739,Prime-Probe,2022.2.4,59.95387149126976,
Test,Visual_Stimuli/D_Up.png,Visual_Stimuli/T_Down.png,n,Incongruent,Congruent,2,4,4,2,10,,,,,,,,,0,25,25,25,,,,,,,,,,,,,,,,,,,,,,,,,,,,,,,,,,,,,,,,,,,,,,0.0050897000041914,743.9892956000001,744.0226447000002,744.1223885000002,744.6226152000002,744.7557598999999,746.0223585000001,N,True,349.7356000002583,0.5056201000043075,1.138425900004222,319,401778,402411,402730,None,0,Correct,746.0223585000001,746.2221706000003,,,,,,,,,,,,,,,,,,,,,,,,,,,,,,,,,,,,,19,20,F,Y,2022-11-10_12h03.02.739,Prime-Probe,2022.2.4,59.95387149126976,
Test,Visual_Stimuli/D_Left.png,Visual_Stimuli/T_Right.png,g,Incongruent,Incongruent,0,1,1,0,7,,,,,,,,,0,26,26,26,,,,,,,,,,,,,,,,,,,,,,,,,,,,,,,,,,,,,,,,,,,,,,0.004840300004616438,746.6894493000002,746.7224803000001,746.8221993,747.3223215999999,747.4556794000002,748.7218549000002,G,True,366.5706000001592,0.5053970000044501,1.1382312000046113,345,404476,405110,405455,None,0,Correct,748.7218549000002,748.9218913000002,,,,,,,,,,,,,,,,,,,,,,,,,,,,,,,,,,,,,19,20,F,Y,2022-11-10_12h03.02.739,Prime-Probe,2022.2.4,59.95387149126976,
Test,Visual_Stimuli/D_Down.png,Visual_Stimuli/T_Up.png,j,Incongruent,Incongruent,4,2,2,4,8,,,,,,,,,0,27,27,27,,,,,,,,,,,,,,,,,,,,,,,,,,,,,,,,,,,,,,,,,,,,,,0.004561300004752411,749.3888328,749.4219752000001,749.5216685000003,750.0220511,750.1551001,751.4216681999999,J,True,300.06349999985105,0.5048859000048651,1.1380829000049744,267,407178,407811,408078,None,0,Correct,751.4216681999999,751.6216019000001,,,,,,,,,,,,,,,,,,,,,,,,,,,,,,,,,,,,,19,20,F,Y,2022-11-10_12h03.02.739,Prime-Probe,2022.2.4,59.95387149126976,
Test,Visual_Stimuli/D_Right.png,Visual_Stimuli/T_Left.png,f,Incongruent,Incongruent,1,0,0,1,6,,,,,,,,,0,28,28,28,,,,,,,,,,,,,,,,,,,,,,,,,,,,,,,,,,,,,,,,,,,,,,0.004256500004885311,752.0887493000002,752.1216987999999,752.2215460999998,752.721742,752.8547093,754.1211903999999,F,True,349.333299999671,0.5046257000049081,1.137996200005091,318,409877,410511,410829,None,0,Correct,754.1211903999999,754.3212927000002,,,,,,,,,,,,,,,,,,,,,,,,,,,,,,,,,,,,,19,20,F,Y,2022-11-10_12h03.02.739,Prime-Probe,2022.2.4,59.95387149126976,
Test,Visual_Stimuli/D_Up.png,Visual_Stimuli/T_Up.png,j,Congruent,Incongruent,2,4,2,4,8,,,,,,,,,0,29,29,29,,,,,,,,,,,,,,,,,,,,,,,,,,,,,,,,,,,,,,,,,,,,,,0.003945500005102076,754.7882231000001,754.8215793000002,754.9212098,755.4215492999999,755.5548861999998,756.8210415000001,J,True,432.24929999996675,0.5045557000053122,1.1379934000051435,399,412576,413209,413608,None,0,Correct,756.8210415000001,757.0208393,,,,,,,,,,,,,,,,,,,,,,,,,,,,,,,,,,,,,19,20,F,Y,2022-11-10_12h03.02.739,Prime-Probe,2022.2.4,59.95387149126976,
Test,Visual_Stimuli/D_Right.png,Visual_Stimuli/T_Right.png,g,Congruent,Congruent,1,0,1,0,7,,,,,,,,,0,30,30,30,,,,,,,,,,,,,,,,,,,,,,,,,,,,,,,,,,,,,,,,,,,,,,0.00347460000512001,757.4883062000001,757.5212392999999,757.6208880000001,758.1214032999999,758.254803,759.5209428999999,G,True,532.9775999998674,0.5041723000053935,1.136953800005358,503,415276,415910,416413,None,0,Correct,759.5209428999999,759.7206032000001,,,,,,,,,,,,,,,,,,,,,,,,,,,,,,,,,,,,,19,20,F,Y,2022-11-10_12h03.02.739,Prime-Probe,2022.2.4,59.95387149126976,
Test,Visual_Stimuli/D_Up.png,Visual_Stimuli/T_Up.png,j,Congruent,Congruent,2,4,2,4,8,,,,,,,,,0,31,31,31,,,,,,,,,,,,,,,,,,,,,,,,,,,,,,,,,,,,,,,,,,,,,,0.003273100005571905,760.1880681999999,760.2207543000002,760.3209032000002,760.8207344,760.9538189000002,762.2211073999999,J,True,316.4815999998609,0.5036956000053578,1.136609000005592,293,417976,418609,418902,None,0,Correct,762.2211073999999,762.4201842999998,,,,,,,,,,,,,,,,,,,,,,,,,,,,,,,,,,,,,19,20,F,Y,2022-11-10_12h03.02.739,Prime-Probe,2022.2.4,59.95387149126976,
Test,Visual_Stimuli/D_Left.png,Visual_Stimuli/T_Left.png,f,Congruent,Congruent,0,1,0,1,6,,,,,,,,,0,32,32,32,,,,,,,,,,,,,,,,,,,,,,,,,,,,,,,,,,,,,,,,,,,,,,0.0028191000055812765,762.8871817000002,762.9204654000002,763.0203564999999,763.5204377000002,763.6534902999999,764.9200444999999,F,True,349.56130000000485,0.5034900000055131,1.136373000005733,317,420675,421308,421625,None,0,Correct,764.9200444999999,765.1198921000002,,,,,,,,,,,,,,,,,,,,,,,,,,,,,,,,,,,,,19,20,F,Y,2022-11-10_12h03.02.739,Prime-Probe,2022.2.4,59.95387149126976,
Test,Visual_Stimuli/D_Up.png,Visual_Stimuli/T_Down.png,n,Incongruent,Congruent,2,4,4,2,10,,,,,,,,,0,33,33,33,,,,,,,,,,,,,,,,,,,,,,,,,,,,,,,,,,,,,,,,,,,,,,0.0025334000056318473,765.5868486000002,765.6201561,765.7198526999998,766.2201438,766.3532203000002,767.6196616,N,True,383.0595999997968,0.5030778000059399,1.136039900005926,347,423375,424007,424354,None,0,Correct,767.6196616,767.8196123,,,,,,,,,,,,,,,,,,,,,,,,,,,,,,,,,,,,,19,20,F,Y,2022-11-10_12h03.02.739,Prime-Probe,2022.2.4,59.95387149126976,
Test,Visual_Stimuli/D_Right.png,Visual_Stimuli/T_Left.png,f,Incongruent,Incongruent,1,0,0,1,6,,,,,,,,,0,34,34,34,,,,,,,,,,,,,,,,,,,,,,,,,,,,,,,,,,,,,,,,,,,,,,0.0022461000062321546,768.2865058999998,768.3199139000001,768.4195981,768.9198029000001,769.0527852000002,770.3194085000002,F,True,333.33700000002864,0.5028523000059977,1.1357047000060447,301,426074,426708,427009,None,0,Correct,770.3194085000002,770.5193286000001,,,,,,,,,,,,,,,,,,,,,,,,,,,,,,,,,,,,,19,20,F,Y,2022-11-10_12h03.02.739,Prime-Probe,2022.2.4,59.95387149126976,
Test,Visual_Stimuli/D_Down.png,Visual_Stimuli/T_Up.png,j,Incongruent,Incongruent,4,2,2,4,8,,,,,,,,,0,35,35,35,,,,,,,,,,,,,,,,,,,,,,,,,,,,,,,,,,,,,,,,,,,,,,0.0019592000062402803,770.9862037,771.0195458000001,771.1193135000001,771.6195482999999,771.7526263000002,773.018996,J,True,266.07979999971576,0.5024886000060178,1.1359656000063296,243,428774,429408,429651,None,0,Correct,773.018996,773.2189848999999,,,,,,,,,,,,,,,,,,,,,,,,,,,,,,,,,,,,,19,20,F,Y,2022-11-10_12h03.02.739,Prime-Probe,2022.2.4,59.95387149126976,
Test,Visual_Stimuli/D_Left.png,Visual_Stimuli/T_Right.png,g,Incongruent,Incongruent,0,1,1,0,7,,,,,,,,,0,36,36,36,,,,,,,,,,,,,,,,,,,,,,,,,,,,,,,,,,,,,,,,,,,,,,0.0016176000062841922,773.6859473000002,773.7192100999998,773.8188771000002,774.3191570000001,774.4521972,775.7187783000002,G,True,349.7597999999016,0.5022074000062275,1.13506330000655,315,431473,432106,432421,None,0,Correct,775.7187783000002,775.9189601,,,,,,,,,,,,,,,,,,,,,,,,,,,,,,,,,,,,,19,20,F,Y,2022-11-10_12h03.02.739,Prime-Probe,2022.2.4,59.95387149126976,
Test,Visual_Stimuli/D_Up.png,Visual_Stimuli/T_Down.png,n,Incongruent,Incongruent,2,4,4,2,10,,,,,,,,,0,37,37,37,,,,,,,,,,,,,,,,,,,,,,,,,,,,,,,,,,,,,,,,,,,,,,0.001596600006450899,776.3857522000001,776.4189299000002,776.5187051,777.0190902000002,777.1519184000001,778.4186167,N,True,283.20380000013756,0.5018632000064827,1.1347776000066006,259,434173,434807,435066,None,0,Correct,778.4186167,778.6184872000001,,,,,,,,,,,,,,,,,,,,,,,,,,,,,,,,,,,,,19,20,F,Y,2022-11-10_12h03.02.739,Prime-Probe,2022.2.4,59.95387149126976,
Test,Visual_Stimuli/D_Right.png,Visual_Stimuli/T_Left.png,f,Incongruent,Incongruent,1,0,0,1,6,,,,,,,,,0,38,38,38,,,,,,,,,,,,,,,,,,,,,,,,,,,,,,,,,,,,,,,,,,,,,,0.001199900006668031,779.0853906,779.1188669999999,779.2184650000002,779.718685,779.8517595999999,781.1183303,F,True,282.9815000000053,0.5018760000066322,1.134539800006678,250,436873,437506,437756,None,0,Correct,781.1183303,781.3183191,,,,,,,,,,,,,,,,,,,,,,,,,,,,,,,,,,,,,19,20,F,Y,2022-11-10_12h03.02.739,Prime-Probe,2022.2.4,59.95387149126976,
Test,Visual_Stimuli/D_Down.png,Visual_Stimuli/T_Down.png,n,Congruent,Incongruent,4,2,4,2,10,,,,,,,,,0,39,39,39,,,,,,,,,,,,,,,,,,,,,,,,,,,,,,,,,,,,,,,,,,,,,,0.0009938000071088027,781.7849914000001,781.8183670000001,781.9182586,782.4184619,782.5513490000001,783.8177601,N,True,366.4233999998032,0.5013469000068653,1.1340825000070254,341,439572,440205,440546,None,0,Correct,783.8177601,784.0178773999999,,,,,,,,,,,,,,,,,,,,,,,,,,,,,,,,,,,,,19,20,F,Y,2022-11-10_12h03.02.739,Prime-Probe,2022.2.4,59.95387149126976,
Test,Visual_Stimuli/D_Right.png,Visual_Stimuli/T_Right.png,g,Congruent,Congruent,1,0,1,0,7,,,,,,,,,0,40,40,40,,,,,,,,,,,,,,,,,,,,,,,,,,,,,,,,,,,,,,,,,,,,,,0.000527100007275294,784.4848017000002,784.5180083000002,784.6178074000002,785.1180387000002,785.2509308000001,786.5174307999998,G,True,383.19870000032097,0.5009652000071583,1.1337683000069774,349,442272,442906,443255,None,0,Correct,786.5174307999998,786.7174949000002,,,,,,,,,,,,,,,,,,,,,,,,,,,,,,,,,,,,,19,20,F,Y,2022-11-10_12h03.02.739,Prime-Probe,2022.2.4,59.95387149126976,
Test,Visual_Stimuli/D_Down.png,Visual_Stimuli/T_Down.png,n,Congruent,Congruent,4,2,4,2,10,,,,,,,,,0,41,41,41,,,,,,,,,,,,,,,,,,,,,,,,,,,,,,,,,,,,,,,,,,,,,,0.000137200007429783,787.1843056999999,787.2176956000001,787.3175981000002,787.8176709000002,787.9505968000001,789.2172005,N,True,366.81670000007216,0.5007788000070832,1.1335548000074596,343,444971,445605,445948,None,0,Correct,789.2172005,789.4172000000001,,,,,,,,,,,,,,,,,,,,,,,,,,,,,,,,,,,,,19,20,F,Y,2022-11-10_12h03.02.739,Prime-Probe,2022.2.4,59.95387149126976,
Test,Visual_Stimuli/D_Right.png,Visual_Stimuli/T_Right.png,g,Congruent,Congruent,1,0,1,0,7,,,,,,,,,0,42,42,42,,,,,,,,,,,,,,,,,,,,,,,,,,,,,,,,,,,,,,,,,,,,,,-5.639999244522187e-05,789.8842437999999,789.9172512000002,790.0172132,790.5175247999998,790.6504929,791.9172547000001,G,True,333.4175999998479,0.5001435000076526,1.1499375000075815,299,447671,448320,448619,None,0,Correct,791.9172547000001,792.1168580000001,,,,,,,,,,,,,,,,,,,,,,,,,,,,,,,,,,,,,19,20,F,Y,2022-11-10_12h03.02.739,Prime-Probe,2022.2.4,59.95387149126976,
Test,Visual_Stimuli/D_Down.png,Visual_Stimuli/T_Up.png,j,Incongruent,Congruent,4,2,2,4,8,,,,,,,,,0,43,43,43,,,,,,,,,,,,,,,,,,,,,,,,,,,,,,,,,,,,,,,,,,,,,,-0.0004691999924943957,792.5837875,792.6172263000001,792.7167904999999,793.2172223,793.3500876999999,794.6165773,J,True,300.13119999966875,0.5001750000078573,1.1496133000077862,277,450370,451021,451298,None,0,Correct,794.6165773,794.8167867,,,,,,,,,,,,,,,,,,,,,,,,,,,,,,,,,,,,,19,20,F,Y,2022-11-10_12h03.02.739,Prime-Probe,2022.2.4,59.95387149126976,
Test,Visual_Stimuli/D_Right.png,Visual_Stimuli/T_Left.png,f,Incongruent,Incongruent,1,0,0,1,6,,,,,,,,,0,44,44,44,,,,,,,,,,,,,,,,,,,,,,,,,,,,,,,,,,,,,,,,,,,,,,-0.0005312999919624417,795.2834300000002,795.3169117999998,795.4165237999998,795.9168066,796.0497238,797.3162857,F,True,316.240199999811,0.5164386000078593,1.1493647000079363,279,453087,453720,453999,None,0,Correct,797.3329904,797.5328769,,,,,,,,,,,,,,,,,,,,,,,,,,,,,,,,,,,,,19,20,F,Y,2022-11-10_12h03.02.739,Prime-Probe,2022.2.4,59.95387149126976,
Test,Visual_Stimuli/D_Down.png,Visual_Stimuli/T_Down.png,n,Congruent,Incongruent,4,2,4,2,10,,,,,,,,,0,45,45,45,,,,,,,,,,,,,,,,,,,,,,,,,,,,,,,,,,,,,,,,,,,,,,-5.5799991969252005e-05,797.9999295999999,798.0166774000002,798.1327997999999,798.6332909,798.7660813999998,800.0160291999998,N,True,299.86319999989064,0.5156116000080146,1.1491843000080735,267,455786,456419,456686,None,0,Correct,800.0325762,800.2325508000001,,,,,,,,,,,,,,,,,,,,,,,,,,,,,,,,,,,,,19,20,F,Y,2022-11-10_12h03.02.739,Prime-Probe,2022.2.4,59.95387149126976,
Test,Visual_Stimuli/D_Right.png,Visual_Stimuli/T_Left.png,f,Incongruent,Congruent,1,0,0,1,6,,,,,,,,,0,46,46,46,,,,,,,,,,,,,,,,,,,,,,,,,,,,,,,,,,,,,,,,,,,,,,-2.7599991881288588e-05,800.6996900000001,800.7327007000001,800.8324866,801.3327907999999,801.4666972000002,802.7322898999998,F,True,316.40509999988353,0.5156739000080961,1.148606300008396,295,458486,459118,459413,None,0,Correct,802.7322898999998,802.9323164999998,,,,,,,,,,,,,,,,,,,,,,,,,,,,,,,,,,,,,19,20,F,Y,2022-11-10_12h03.02.739,Prime-Probe,2022.2.4,59.95387149126976,
Test,Visual_Stimuli/D_Down.png,Visual_Stimuli/T_Down.png,n,Congruent,Incongruent,4,2,4,2,10,,,,,,,,,0,47,47,47,,,,,,,,,,,,,,,,,,,,,,,,,,,,,,,,,,,,,,,,,,,,,,-0.0004863999915869499,803.3994688,803.4324560000002,803.5322423999999,804.032438,804.1654569999998,805.4323634999998,N,True,299.77950000011333,0.515426900008606,1.1482758000083777,266,461185,461819,462085,None,0,Correct,805.4323634999998,805.6319353000001,,,,,,,,,,,,,,,,,,,,,,,,,,,,,,,,,,,,,19,20,F,Y,2022-11-10_12h03.02.739,Prime-Probe,2022.2.4,59.95387149126976,
Test,Visual_Stimuli/D_Left.png,Visual_Stimuli/T_Right.png,g,Incongruent,Congruent,0,1,1,0,7,,,,,,,,,0,48,48,48,,,,,,,,,,,,,,,,,,,,,,,,,,,,,,,,,,,,,,,,,,,,,,-0.0007847999913792592,806.0987738000001,806.1321522999999,806.2318941999999,806.7321565999998,806.8651870000001,808.1317252000001,G,True,332.9828000000816,0.5151574000087749,1.1481638000086605,304,463885,464517,464821,None,0,Correct,808.1317252000001,808.3315943999999,,,,,,,,,,,,,,,,,,,,,,,,,,,,,,,,,,,,,19,20,F,Y,2022-11-10_12h03.02.739,Prime-Probe,2022.2.4,59.95387149126976,
Test,Visual_Stimuli/D_Down.png,Visual_Stimuli/T_Down.png,n,Congruent,Incongruent,4,2,4,2,10,,,,,,,,,0,49,49,49,,,,,,,,,,,,,,,,,,,,,,,,,,,,,,,,,,,,,,,,,,,,,,0.014247700008581887,808.7988693999998,808.8318468999998,808.9316982000003,809.4318051000002,809.5648113999998,810.8313789000001,N,True,299.83519999996133,0.5147595000089495,1.1477243000085764,276,466585,467217,467493,None,0,Correct,810.8313789000001,811.0312595000003,,,,,,,,,,,,,,,,,,,,,,,,,,,,,,,,,,,,,19,20,F,Y,2022-11-10_12h03.02.739,Prime-Probe,2022.2.4,59.95387149126976,
Test,Visual_Stimuli/D_Right.png,Visual_Stimuli/T_Right.png,g,Congruent,Congruent,1,0,1,0,7,,,,,,,,,0,50,50,50,,,,,,,,,,,,,,,,,,,,,,,,,,,,,,,,,,,,,,,,,,,,,,0.01389240000889913,811.4983337000001,811.5315429,811.6313189999998,812.1314611,812.2645497999999,813.5310147000002,G,True,349.6962999997777,0.5145078000091416,1.1474119000090468,312,469284,469918,470230,None,0,Correct,813.5310147000002,813.7309745999999,,,,,,,,,,,,,,,,,,,,,,,,,,,,,,,,,,,,,19,20,F,Y,2022-11-10_12h03.02.739,Prime-Probe,2022.2.4,59.95387149126976,
Test,Visual_Stimuli/D_Up.png,Visual_Stimuli/T_Up.png,j,Congruent,Congruent,2,4,2,4,8,,,,,,,,,0,51,51,51,,,,,,,,,,,,,,,,,,,,,,,,,,,,,,,,,,,,,,,,,,,,,,0.013647300009324681,814.1982088000002,814.2312638999999,814.3309926,814.8311722999999,814.9642248000002,816.2307610999999,J,True,332.8784000000269,0.5142211000093084,1.147385000009308,298,471983,472617,472915,None,0,Correct,816.2307610999999,816.430764,,,,,,,,,,,,,,,,,,,,,,,,,,,,,,,,,,,,,19,20,F,Y,2022-11-10_12h03.02.739,Prime-Probe,2022.2.4,59.95387149126976,
Test,Visual_Stimuli/D_Right.png,Visual_Stimuli/T_Left.png,f,Incongruent,Congruent,1,0,0,1,6,,,,,,,,,0,52,52,52,,,,,,,,,,,,,,,,,,,,,,,,,,,,,,,,,,,,,,,,,,,,,,0.013442500009205105,816.8977462999999,816.9309527000003,817.0307261,817.5313539000001,817.6639794999999,818.9304285999999,F,True,316.56859999975495,0.5139471000093181,1.1467159000094398,294,474684,475316,475610,None,0,Correct,818.9304285999999,819.1309755999998,,,,,,,,,,,,,,,,,,,,,,,,,,,,,,,,,,,,,19,20,F,Y,2022-11-10_12h03.02.739,Prime-Probe,2022.2.4,59.95387149126976,
Test,Visual_Stimuli/D_Up.png,Visual_Stimuli/T_Up.png,j,Congruent,Incongruent,2,4,2,4,8,,,,,,,,,0,53,53,53,,,,,,,,,,,,,,,,,,,,,,,,,,,,,,,,,,,,,,,,,,,,,,0.013771000009455747,819.5974303,819.6307509999999,819.7303497,820.2305844999998,820.3636345000002,821.6301341000001,J,True,332.8895999998167,0.5137561000096866,1.1467640000096253,306,477383,478017,478323,None,0,Correct,821.6301341000001,821.8301435000001,,,,,,,,,,,,,,,,,,,,,,,,,,,,,,,,,,,,,19,20,F,Y,2022-11-10_12h03.02.739,Prime-Probe,2022.2.4,59.95387149126976,
Test,Visual_Stimuli/D_Right.png,Visual_Stimuli/T_Right.png,g,Congruent,Congruent,1,0,1,0,7,,,,,,,,,0,54,54,54,,,,,,,,,,,,,,,,,,,,,,,,,,,,,,,,,,,,,,,,,,,,,,0.012778000009802781,822.2971473999999,822.3301767999999,822.4299994,822.9303778999999,823.0633251000002,824.3297399,G,True,349.51770000043325,0.5131254000098124,1.1463433000094483,325,480082,480716,481041,None,0,Correct,824.3297399,824.5298823999999,,,,,,,,,,,,,,,,,,,,,,,,,,,,,,,,,,,,,19,20,F,Y,2022-11-10_12h03.02.739,Prime-Probe,2022.2.4,59.95387149126976,
Test,Visual_Stimuli/D_Up.png,Visual_Stimuli/T_Up.png,j,Congruent,Congruent,2,4,2,4,8,,,,,,,,,0,55,55,55,,,,,,,,,,,,,,,,,,,,,,,,,,,,,,,,,,,,,,,,,,,,,,0.01251930000989887,824.9966686,825.0300116000001,825.129647,825.6299185,825.7629259000003,827.0295492000002,J,True,349.4264999999359,0.5129288000098313,1.1462134000098558,329,482780,483414,483743,None,0,Correct,827.0295492000002,827.2295642000001,,,,,,,,,,,,,,,,,,,,,,,,,,,,,,,,,,,,,19,20,F,Y,2022-11-10_12h03.02.739,Prime-Probe,2022.2.4,59.95387149126976,
Test,Visual_Stimuli/D_Left.png,Visual_Stimuli/T_Right.png,g,Incongruent,Congruent,0,1,1,0,7,,,,,,,,,0,56,56,56,,,,,,,,,,,,,,,,,,,,,,,,,,,,,,,,,,,,,,,,,,,,,,0.012200800009850354,827.6965622999999,827.7297652999998,827.8295202000002,828.3299023000002,828.4627855000001,829.7292826,G,True,416.36819999985164,0.5127350000102524,1.1455900000100883,387,485482,486116,486503,None,0,Correct,829.7292826,829.9293116000001,,,,,,,,,,,,,,,,,,,,,,,,,,,,,,,,,,,,,19,20,F,Y,2022-11-10_12h03.02.739,Prime-Probe,2022.2.4,59.95387149126976,
Test,Visual_Stimuli/D_Up.png,Visual_Stimuli/T_Up.png,j,Congruent,Incongruent,2,4,2,4,8,,,,,,,,,0,57,57,57,,,,,,,,,,,,,,,,,,,,,,,,,,,,,,,,,,,,,,,,,,,,,,0.011968400010118785,830.3961142,830.4298077000001,830.5291829999999,831.0299673000002,831.162728,832.4290606000002,J,True,332.75170000024445,0.5129637000100047,1.1456182000101762,300,488181,488815,489115,None,0,Correct,832.4290606000002,832.6290154000001,,,,,,,,,,,,,,,,,,,,,,,,,,,,,,,,,,,,,19,20,F,Y,2022-11-10_12h03.02.739,Prime-Probe,2022.2.4,59.95387149126976,
Test,Visual_Stimuli/D_Left.png,Visual_Stimuli/T_Right.png,g,Incongruent,Congruent,0,1,1,0,7,,,,,,,,,0,58,58,58,,,,,,,,,,,,,,,,,,,,,,,,,,,,,,,,,,,,,,,,,,,,,,0.011692300010508916,833.0961596,833.1290382999998,833.2287145000003,833.7293252000002,833.8620819,835.1287258,G,True,350.0747999996747,0.5120224000102098,1.145025100010571,320,490879,491513,491833,None,0,Correct,835.1287258,835.3286604000002,,,,,,,,,,,,,,,,,,,,,,,,,,,,,,,,,,,,,19,20,F,Y,2022-11-10_12h03.02.739,Prime-Probe,2022.2.4,59.95387149126976,
Test,Visual_Stimuli/D_Down.png,Visual_Stimuli/T_Up.png,j,Incongruent,Incongruent,4,2,2,4,8,,,,,,,,,0,59,59,59,,,,,,,,,,,,,,,,,,,,,,,,,,,,,,,,,,,,,,,,,,,,,,0.01134650001040427,835.7953866999999,835.8290556,835.9286220000001,836.4287252000001,836.5616805000002,837.8285382000001,J,True,349.5936999997866,0.51202910001075,1.1447363000106634,315,493581,494214,494529,None,0,Correct,837.8285382000001,838.0281588999999,,,,,,,,,,,,,,,,,,,,,,,,,,,,,,,,,,,,,19,20,F,Y,2022-11-10_12h03.02.739,Prime-Probe,2022.2.4,59.95387149126976,
Test,Visual_Stimuli/D_Right.png,Visual_Stimuli/T_Left.png,f,Incongruent,Incongruent,1,0,0,1,6,,,,,,,,,0,60,60,60,,,,,,,,,,,,,,,,,,,,,,,,,,,,,,,,,,,,,,,,,,,,,,0.010844400010682875,838.4954168000002,838.5284416000002,838.6282444999999,839.1287263000002,839.2613330000001,840.5279114000002,F,True,416.577800000141,0.5113921000106529,1.1442332000106035,379,496280,496914,497293,None,0,Correct,840.5279114000002,840.7280017,,,,,,,,,,,,,,,,,,,,,,,,,,,,,,,,,,,,,19,20,F,Y,2022-11-10_12h03.02.739,Prime-Probe,2022.2.4,59.95387149126976,
Test,Visual_Stimuli/D_Down.png,Visual_Stimuli/T_Up.png,j,Incongruent,Incongruent,4,2,2,4,8,,,,,,,,,0,61,61,61,,,,,,,,,,,,,,,,,,,,,,,,,,,,,,,,,,,,,,,,,,,,,,0.010647200011135283,841.1948837000002,841.2281885999998,841.3279768999998,841.8282762000001,841.9610805,843.2277716000001,J,True,366.5846999997484,0.5112092000108532,1.143955200011078,343,498978,499612,499955,None,0,Correct,843.2277716000001,843.4276523999999,,,,,,,,,,,,,,,,,,,,,,,,,,,,,,,,,,,,,19,20,F,Y,2022-11-10_12h03.02.739,Prime-Probe,2022.2.4,59.95387149126976,
Test,Visual_Stimuli/D_Left.png,Visual_Stimuli/T_Right.png,g,Incongruent,Incongruent,0,1,1,0,7,,,,,,,,,0,62,62,62,,,,,,,,,,,,,,,,,,,,,,,,,,,,,,,,,,,,,,,,,,,,,,0.010288700011187757,843.8948103,843.9277816000001,844.0277511000002,844.5279716000002,844.6608054999999,845.927308,G,True,416.53489999998783,0.5107100000109313,1.1436325000113357,395,501679,502311,502706,None,0,Correct,845.927308,846.1274353000001,,,,,,,,,,,,,,,,,,,,,,,,,,,,,,,,,,,,,19,20,F,Y,2022-11-10_12h03.02.739,Prime-Probe,2022.2.4,59.95387149126976,
Test,Visual_Stimuli/D_Up.png,Visual_Stimuli/T_Down.png,n,Incongruent,Incongruent,2,4,4,2,10,,,,,,,,,0,63,63,63,,,,,,,,,,,,,,,,,,,,,,,,,,,,,,,,,,,,,,,,,,,,,,0.010119500011114724,846.5942352,846.6275926000001,846.7273478,847.2277345,847.3604754,848.6270062000001,N,True,366.54260000022987,0.5105760000114969,1.1433783000111362,341,504379,505013,505354,None,0,Correct,848.6270062000001,848.8270963000002,,,,,,,,,,,,,,,,,,,,,,,,,,,,,,,,,,,,,19,20,F,Y,2022-11-10_12h03.02.739,Prime-Probe,2022.2.4,59.95387149126976,
Test,Visual_Stimuli/D_Left.png,Visual_Stimuli/T_Left.png,f,Congruent,Incongruent,0,1,0,1,6,,,,,,,,,0,64,64,64,,,,,,,,,,,,,,,,,,,,,,,,,,,,,,,,,,,,,,,,,,,,,,0.00972980001142787,849.2939829,849.3272116,849.4269414000003,849.9272530000001,850.0605567,851.3267693999999,F,True,399.63899999975183,0.5101404000115508,1.1430398000115929,369,507078,507711,508080,None,0,Correct,851.3267693999999,851.5268781000002,,,,,,,,,,,,,,,,,,,,,,,,,,,,,,,,,,,,,19,20,F,Y,2022-11-10_12h03.02.739,Prime-Probe,2022.2.4,59.95387149126976,
Test,Visual_Stimuli/D_Down.png,Visual_Stimuli/T_Up.png,j,Incongruent,Congruent,4,2,2,4,8,,,,,,,,,0,65,65,65,,,,,,,,,,,,,,,,,,,,,,,,,,,,,,,,,,,,,,,,,,,,,,0.009512600011476025,851.9937296999999,852.0269481000003,852.1265971,852.6269493000002,852.7599213999999,854.0264098,J,True,383.1359999999222,0.5099320000117586,1.14272000001165,347,509776,510410,510757,None,0,Correct,854.0264098,854.2263206999999,,,,,,,,,,,,,,,,,,,,,,,,,,,,,,,,,,,,,19,20,F,Y,2022-11-10_12h03.02.739,Prime-Probe,2022.2.4,59.95387149126976,
Test,Visual_Stimuli/D_Right.png,Visual_Stimuli/T_Right.png,g,Congruent,Incongruent,1,0,1,0,7,,,,,,,,,0,66,66,66,,,,,,,,,,,,,,,,,,,,,,,,,,,,,,,,,,,,,,,,,,,,,,0.008987700011857669,854.6932723000002,854.72666,854.8262617000003,855.3265265000002,855.4595107000002,856.7262913000002,G,True,316.7417999998179,0.5096774000116966,1.1425610000119377,295,512478,513111,513406,None,0,Correct,856.7262913000002,856.9260903000002,,,,,,,,,,,,,,,,,,,,,,,,,,,,,,,,,,,,,19,20,F,Y,2022-11-10_12h03.02.739,Prime-Probe,2022.2.4,59.95387149126976,
Test,Visual_Stimuli/D_Up.png,Visual_Stimuli/T_Down.png,n,Incongruent,Congruent,2,4,4,2,10,,,,,,,,,0,67,67,67,,,,,,,,,,,,,,,,,,,,,,,,,,,,,,,,,,,,,,,,,,,,,,0.008766400012063968,857.3929535999998,857.4262344000001,857.5262367000003,858.0261766000001,858.1592982,859.4257685,N,True,299.8600000000806,0.5092659000119966,1.1420962000120198,272,515177,515811,516083,None,0,Correct,859.4257685,859.6259052000003,,,,,,,,,,,,,,,,,,,,,,,,,,,,,,,,,,,,,19,20,F,Y,2022-11-10_12h03.02.739,Prime-Probe,2022.2.4,59.95387149126976,
Test,Visual_Stimuli/D_Left.png,Visual_Stimuli/T_Left.png,f,Congruent,Incongruent,0,1,0,1,6,,,,,,,,,0,68,68,68,,,,,,,,,,,,,,,,,,,,,,,,,,,,,,,,,,,,,,,,,,,,,,0.008537600012004987,860.0928397,860.1258356000001,860.2261516000001,860.7260075000002,860.8590007,862.1256657000001,F,True,399.9653999999282,0.5087599000121372,1.1418086000121548,372,517876,518509,518881,None,0,Correct,862.1256657000001,862.3254253000002,,,,,,,,,,,,,,,,,,,,,,,,,,,,,,,,,,,,,19,20,F,Y,2022-11-10_12h03.02.739,Prime-Probe,2022.2.4,59.95387149126976,
Test,Visual_Stimuli/D_Down.png,Visual_Stimuli/T_Down.png,n,Congruent,Congruent,4,2,4,2,10,,,,,,,,,0,69,69,69,,,,,,,,,,,,,,,,,,,,,,,,,,,,,,,,,,,,,,,,,,,,,,0.008109800012334745,862.7923533999999,862.8257802,862.9258866000002,863.4262007999998,863.5588150000001,864.8253232,N,True,349.7440999999526,0.5087695000124768,1.1416380000123354,316,520576,521208,521524,None,0,Correct,864.8253232,865.0252228000002,,,,,,,,,,,,,,,,,,,,,,,,,,,,,,,,,,,,,19,20,F,Y,2022-11-10_12h03.02.739,Prime-Probe,2022.2.4,59.95387149126976,
Test,Visual_Stimuli/D_Right.png,Visual_Stimuli/T_Right.png,g,Congruent,Congruent,1,0,1,0,7,,,,,,,,,0,70,70,70,,,,,,,,,,,,,,,,,,,,,,,,,,,,,,,,,,,,,,,,,,,,,,0.00787990001254002,865.4921213999999,865.5253500000001,865.6252683999999,866.1252348999999,866.2584531999998,867.5249649,G,True,382.9224000000977,0.5083186000124442,1.141301300012401,355,523276,523909,524264,None,0,Correct,867.5249649,867.7249429000001,,,,,,,,,,,,,,,,,,,,,,,,,,,,,,,,,,,,,19,20,F,Y,2022-11-10_12h03.02.739,Prime-Probe,2022.2.4,59.95387149126976,
Test,Visual_Stimuli/D_Down.png,Visual_Stimuli/T_Down.png,n,Congruent,Congruent,4,2,4,2,10,,,,,,,,,0,71,71,71,,,,,,,,,,,,,,,,,,,,,,,,,,,,,,,,,,,,,,,,,,,,,,0.007579000012810866,868.1917268999998,868.2251705000001,868.3247155000001,868.8250642999999,868.9584643999999,870.2246868,N,True,366.2273999998433,0.5081382000125814,1.1410145000127159,333,525975,526609,526942,None,0,Correct,870.2246868,870.9233532000001,,,,,,,,,,,,,,,,,,,,,,,,,,,,,,,,,,,,,19,20,F,Y,2022-11-10_12h03.02.739,Prime-Probe,2022.2.4,59.95387149126976,
,,,,,,,,,,,,,,,,,,,,,,,,,,,,,,,,,,,,,,,,,,,,,,,,,,,,,,,,,,,,,,,,,,,,,,,,,,,,,,,,,,,,,,,,,,,,876.9149294000001,876.9149294000001,None,,,870.9233532000001,870.9233532000001,,,,,,,,,,,,,,,,,,,,,,,,,,,19,20,F,Y,2022-11-10_12h03.02.739,Prime-Probe,2022.2.4,59.95387149126976,
Test,Visual_Stimuli/D_Right.png,Visual_Stimuli/T_Left.png,f,Incongruent,None,1,0,0,1,6,,,,,,,,,,,,,0,0,0,0,,,,,,,,,,,,,,,,,,,,,,,,,,,,,,,,,,,,,,894.3385672000002,896.1388313999998,896.1388313999998,896.3382201000002,0.005521500000213564,896.8050785000003,896.8389816000001,896.9380542000001,897.4382747000002,897.5716106000002,898.8381187000002,F,True,382.969299999786,0.5138640000000123,1.1462353000001713,349,554586,555219,555568,None,0,Correct,898.8381187000002,899.0379733000002,,,,,,,,,,,,,,,,,,,,,,,,,,,,,,,,,,,,,19,20,F,Y,2022-11-10_12h03.02.739,Prime-Probe,2022.2.4,59.95387149126976,
Test,Visual_Stimuli/D_Down.png,Visual_Stimuli/T_Up.png,j,Incongruent,Incongruent,4,2,2,4,8,,,,,,,,,,,,,0,1,1,1,,,,,,,,,,,,,,,,,,,,,,,,,,,,,,,,,,,,,,,,,,0.012547300000278483,899.5047932999998,899.5380195,899.6378550000002,900.1381391000002,900.2710374999999,901.5375824999999,J,True,349.56119999969815,0.512836100000186,1.145987000000332,324,557287,557921,558245,None,0,Correct,901.5375824999999,901.7375855000003,,,,,,,,,,,,,,,,,,,,,,,,,,,,,,,,,,,,,19,20,F,Y,2022-11-10_12h03.02.739,Prime-Probe,2022.2.4,59.95387149126976,
Test,Visual_Stimuli/D_Left.png,Visual_Stimuli/T_Right.png,g,Incongruent,Incongruent,0,1,1,0,7,,,,,,,,,,,,,0,2,2,2,,,,,,,,,,,,,,,,,,,,,,,,,,,,,,,,,,,,,,,,,,0.012197800000194547,902.2048398,902.2379017000001,902.3375152000001,902.8379189,902.9712059999999,904.2373392000002,G,True,349.7727999997551,0.5128303000005872,1.1456176000006053,326,559986,560620,560946,None,0,Correct,904.2373392000002,904.4373437000002,,,,,,,,,,,,,,,,,,,,,,,,,,,,,,,,,,,,,19,20,F,Y,2022-11-10_12h03.02.739,Prime-Probe,2022.2.4,59.95387149126976,
Test,Visual_Stimuli/D_Up.png,Visual_Stimuli/T_Down.png,n,Incongruent,Incongruent,2,4,4,2,10,,,,,,,,,,,,,0,3,3,3,,,,,,,,,,,,,,,,,,,,,,,,,,,,,,,,,,,,,,,,,,0.011920300000383577,904.9042102000001,904.9375216999999,905.0375332000001,905.5376088999999,905.6705884999999,906.9369436,N,True,299.9160999997912,0.5124548000007962,1.1452361000006022,267,562685,563318,563585,None,0,Correct,906.9369436,907.1369950000001,,,,,,,,,,,,,,,,,,,,,,,,,,,,,,,,,,,,,19,20,F,Y,2022-11-10_12h03.02.739,Prime-Probe,2022.2.4,59.95387149126976,
Test,Visual_Stimuli/D_Right.png,Visual_Stimuli/T_Right.png,g,Congruent,Incongruent,1,0,1,0,7,,,,,,,,,,,,,0,4,4,4,,,,,,,,,,,,,,,,,,,,,,,,,,,,,,,,,,,,,,,,,,0.011573900000712456,907.6039797999999,907.6372371,907.7369532,908.2371739000002,908.3701569000002,909.6366401000002,G,True,332.5830999997379,0.5121354000007159,1.1454721000009158,312,565386,566017,566329,None,0,Correct,909.6366401000002,909.8367309000002,,,,,,,,,,,,,,,,,,,,,,,,,,,,,,,,,,,,,19,20,F,Y,2022-11-10_12h03.02.739,Prime-Probe,2022.2.4,59.95387149126976,
Test,Visual_Stimuli/D_Down.png,Visual_Stimuli/T_Down.png,n,Congruent,Congruent,4,2,4,2,10,,,,,,,,,,,,,0,5,5,5,,,,,,,,,,,,,,,,,,,,,,,,,,,,,,,,,,,,,,,,,,0.011325200001010671,910.3039436000001,910.3368548000001,910.4366069999999,910.936841,911.0698126999998,912.3363846,N,True,382.963899999595,0.5117860000009387,1.1446082000011302,358,568085,568719,569077,None,0,Correct,912.3363846,912.5364837999998,,,,,,,,,,,,,,,,,,,,,,,,,,,,,,,,,,,,,19,20,F,Y,2022-11-10_12h03.02.739,Prime-Probe,2022.2.4,59.95387149126976,
Test,Visual_Stimuli/D_Right.png,Visual_Stimuli/T_Left.png,f,Incongruent,Congruent,1,0,0,1,6,,,,,,,,,,,,,0,6,6,6,,,,,,,,,,,,,,,,,,,,,,,,,,,,,,,,,,,,,,,,,,0.011057100000925857,913.0033351,913.0365597000002,913.1363567000001,913.6366280999998,913.7695492,915.036085,F,True,349.8061999998754,0.5115171000011287,1.1443800000010924,316,570784,571418,571734,None,0,Correct,915.036085,915.2366782000001,,,,,,,,,,,,,,,,,,,,,,,,,,,,,,,,,,,,,19,20,F,Y,2022-11-10_12h03.02.739,Prime-Probe,2022.2.4,59.95387149126976,
Test,Visual_Stimuli/D_Down.png,Visual_Stimuli/T_Down.png,n,Congruent,Incongruent,4,2,4,2,10,,,,,,,,,,,,,0,7,7,7,,,,,,,,,,,,,,,,,,,,,,,,,,,,,,,,,,,,,,,,,,0.011276600001110637,915.7028716000002,915.7361821000002,915.8360211000002,916.3364087000002,916.4692751,917.7356760999999,N,True,365.9302999999454,0.5110617000013917,1.1446434000013141,333,573485,574116,574449,None,0,Correct,917.7356760999999,917.9357065000002,,,,,,,,,,,,,,,,,,,,,,,,,,,,,,,,,,,,,19,20,F,Y,2022-11-10_12h03.02.739,Prime-Probe,2022.2.4,59.95387149126976,
Test,Visual_Stimuli/D_Right.png,Visual_Stimuli/T_Left.png,f,Incongruent,Congruent,1,0,0,1,6,,,,,,,,,,,,,0,8,8,8,,,,,,,,,,,,,,,,,,,,,,,,,,,,,,,,,,,,,,,,,,0.01031720000128189,918.4026440999999,918.4358456000002,918.5357388,919.0359885999999,919.1690016999999,920.4353816999999,F,True,416.3373999999749,0.5107643000014832,1.144132600001285,392,576184,576817,577209,None,0,Correct,920.4353816999999,920.6356929000001,,,,,,,,,,,,,,,,,,,,,,,,,,,,,,,,,,,,,19,20,F,Y,2022-11-10_12h03.02.739,Prime-Probe,2022.2.4,59.95387149126976,
Test,Visual_Stimuli/D_Up.png,Visual_Stimuli/T_Up.png,j,Congruent,Incongruent,2,4,2,4,8,,,,,,,,,,,,,0,9,9,9,,,,,,,,,,,,,,,,,,,,,,,,,,,,,,,,,,,,,,,,,,0.010271200001625402,921.1023045,921.1355062999999,921.2355359000001,921.7357195000002,921.8686893000001,923.1351587000001,J,True,349.7965000001386,0.5103974000016933,1.143351300001541,318,578883,579517,579835,None,0,Correct,923.1351587000001,923.3352726,,,,,,,,,,,,,,,,,,,,,,,,,,,,,,,,,,,,,19,20,F,Y,2022-11-10_12h03.02.739,Prime-Probe,2022.2.4,59.95387149126976,
Test,Visual_Stimuli/D_Right.png,Visual_Stimuli/T_Left.png,f,Incongruent,Congruent,1,0,0,1,6,,,,,,,,,,,,,0,10,10,10,,,,,,,,,,,,,,,,,,,,,,,,,,,,,,,,,,,,,,,,,,0.009897900001760718,923.8020168,923.8352517999999,923.9350403999999,924.4357911999998,924.5683089000001,925.8349074999999,F,True,333.18529999996827,0.5101851000017632,1.1430412000017895,299,581582,582215,582514,None,0,Correct,925.8349074999999,926.0348731000001,,,,,,,,,,,,,,,,,,,,,,,,,,,,,,,,,,,,,19,20,F,Y,2022-11-10_12h03.02.739,Prime-Probe,2022.2.4,59.95387149126976,
Test,Visual_Stimuli/D_Down.png,Visual_Stimuli/T_Down.png,n,Congruent,Incongruent,4,2,4,2,10,,,,,,,,,,,,,0,11,11,11,,,,,,,,,,,,,,,,,,,,,,,,,,,,,,,,,,,,,,,,,,0.00944850000223596,926.5016423999998,926.5349219000002,926.6345680000002,927.1348211000002,927.2679768,928.5345430999998,N,True,332.6060999997935,0.5098300000022391,1.1431467000020348,303,584282,584916,585219,None,0,Correct,928.5345430999998,928.7344641000002,,,,,,,,,,,,,,,,,,,,,,,,,,,,,,,,,,,,,19,20,F,Y,2022-11-10_12h03.02.739,Prime-Probe,2022.2.4,59.95387149126976,
Test,Visual_Stimuli/D_Left.png,Visual_Stimuli/T_Left.png,f,Congruent,Congruent,0,1,0,1,6,,,,,,,,,,,,,0,12,12,12,,,,,,,,,,,,,,,,,,,,,,,,,,,,,,,,,,,,,,,,,,0.009036700002070575,929.2012790000001,929.2346825000002,929.3344932000002,929.8349916999998,929.9677420999999,931.2342114999999,F,True,382.84310000017285,0.5096028000020851,1.1426502000022083,356,586982,587616,587972,None,0,Correct,931.2342114999999,931.4341480999999,,,,,,,,,,,,,,,,,,,,,,,,,,,,,,,,,,,,,19,20,F,Y,2022-11-10_12h03.02.739,Prime-Probe,2022.2.4,59.95387149126976,
Test,Visual_Stimuli/D_Up.png,Visual_Stimuli/T_Down.png,n,Incongruent,Congruent,2,4,4,2,10,,,,,,,,,,,,,0,13,13,13,,,,,,,,,,,,,,,,,,,,,,,,,,,,,,,,,,,,,,,,,,0.008762400002524373,931.9012991000002,931.9343387000001,932.0343144999999,932.5343405000001,932.6675754999999,933.9338973000001,N,True,332.9231000002437,0.5092258000022412,1.142272600002343,311,589680,590314,590625,None,0,Correct,933.9338973000001,934.1338892000001,,,,,,,,,,,,,,,,,,,,,,,,,,,,,,,,,,,,,19,20,F,Y,2022-11-10_12h03.02.739,Prime-Probe,2022.2.4,59.95387149126976,
Test,Visual_Stimuli/D_Right.png,Visual_Stimuli/T_Left.png,f,Incongruent,Incongruent,1,0,0,1,6,,,,,,,,,,,,,0,14,14,14,,,,,,,,,,,,,,,,,,,,,,,,,,,,,,,,,,,,,,,,,,0.008464300002742675,934.6006838999999,934.6341011000002,934.7337804000001,935.2340750999999,935.3673194,936.6334944000002,F,True,400.053399999706,0.5089412000024822,1.1418770000027507,377,592381,593013,593390,None,0,Correct,936.6334944000002,936.8336249000001,,,,,,,,,,,,,,,,,,,,,,,,,,,,,,,,,,,,,19,20,F,Y,2022-11-10_12h03.02.739,Prime-Probe,2022.2.4,59.95387149126976,
Test,Visual_Stimuli/D_Up.png,Visual_Stimuli/T_Up.png,j,Congruent,Incongruent,2,4,2,4,8,,,,,,,,,,,,,0,15,15,15,,,,,,,,,,,,,,,,,,,,,,,,,,,,,,,,,,,,,,,,,,0.008207800002764998,937.3003406999999,937.3337961999998,937.4334538999999,937.9335954999999,938.0668238999999,939.3334068000001,J,True,399.8613000003388,0.5086786000028951,1.1414532000026156,377,595081,595714,596091,None,0,Correct,939.3334068000001,939.5331388000002,,,,,,,,,,,,,,,,,,,,,,,,,,,,,,,,,,,,,19,20,F,Y,2022-11-10_12h03.02.739,Prime-Probe,2022.2.4,59.95387149126976,
Test,Visual_Stimuli/D_Right.png,Visual_Stimuli/T_Left.png,f,Incongruent,Congruent,1,0,0,1,6,,,,,,,,,,,,,0,16,16,16,,,,,,,,,,,,,,,,,,,,,,,,,,,,,,,,,,,,,,,,,,0.007714600003055239,940.0006273000001,940.0333931000002,940.1332026000002,940.6334219000003,940.7664842000001,942.0328895999999,F,True,349.8131999999714,0.508284600002753,1.141195000002881,323,597780,598413,598736,None,0,Correct,942.0328895999999,942.2328976000001,,,,,,,,,,,,,,,,,,,,,,,,,,,,,,,,,,,,,19,20,F,Y,2022-11-10_12h03.02.739,Prime-Probe,2022.2.4,59.95387149126976,
Test,Visual_Stimuli/D_Down.png,Visual_Stimuli/T_Up.png,j,Incongruent,Incongruent,4,2,2,4,8,,,,,,,,,,,,,0,17,17,17,,,,,,,,,,,,,,,,,,,,,,,,,,,,,,,,,,,,,,,,,,0.007490500003314082,942.6999351000002,942.7330251000001,942.8328585000002,943.3331476000001,943.4662796,944.7326355000002,J,True,366.0986999998386,0.5078794000032758,1.1410806000030789,341,600480,601114,601455,None,0,Correct,944.7326355000002,944.9325350000001,,,,,,,,,,,,,,,,,,,,,,,,,,,,,,,,,,,,,19,20,F,Y,2022-11-10_12h03.02.739,Prime-Probe,2022.2.4,59.95387149126976,
Test,Visual_Stimuli/D_Right.png,Visual_Stimuli/T_Left.png,f,Incongruent,Incongruent,1,0,0,1,6,,,,,,,,,,,,,0,18,18,18,,,,,,,,,,,,,,,,,,,,,,,,,,,,,,,,,,,,,,,,,,0.007150000003093737,945.3997984,945.4329676999998,945.5325783000001,946.0330372999999,946.1657563000001,947.4322758999999,F,True,416.3411999998061,0.5079550000032214,1.1406512000035036,379,603179,603813,604192,None,0,Correct,947.4322758999999,947.6322716000002,,,,,,,,,,,,,,,,,,,,,,,,,,,,,,,,,,,,,19,20,F,Y,2022-11-10_12h03.02.739,Prime-Probe,2022.2.4,59.95387149126976,
Test,Visual_Stimuli/D_Down.png,Visual_Stimuli/T_Down.png,n,Congruent,Incongruent,4,2,4,2,10,,,,,,,,,,,,,0,19,19,19,,,,,,,,,,,,,,,,,,,,,,,,,,,,,,,,,,,,,,,,,,0.006848600003650063,948.0993775,948.1323632000001,948.2323137000001,948.7323764999999,948.8656079999998,950.1320223999999,N,True,383.14749999972264,0.5072792000032678,1.1404444000036165,360,605879,606511,606871,None,0,Correct,950.1320223999999,950.3319563000002,,,,,,,,,,,,,,,,,,,,,,,,,,,,,,,,,,,,,19,20,F,Y,2022-11-10_12h03.02.739,Prime-Probe,2022.2.4,59.95387149126976,
Test,Visual_Stimuli/D_Left.png,Visual_Stimuli/T_Left.png,f,Congruent,Congruent,0,1,0,1,6,,,,,,,,,,,,,0,20,20,20,,,,,,,,,,,,,,,,,,,,,,,,,,,,,,,,,,,,,,,,,,0.006534000003739493,950.7989676999998,950.8327591999998,950.9319207000001,951.43209,951.5650742999999,952.8316529000001,F,True,349.94559999995545,0.5076229000037529,1.1400316000035673,315,608579,609211,609526,None,0,Correct,952.8316529000001,953.0319109,,,,,,,,,,,,,,,,,,,,,,,,,,,,,,,,,,,,,19,20,F,Y,2022-11-10_12h03.02.739,Prime-Probe,2022.2.4,59.95387149126976,
Test,Visual_Stimuli/D_Up.png,Visual_Stimuli/T_Up.png,j,Congruent,Congruent,2,4,2,4,8,,,,,,,,,,,,,0,21,21,21,,,,,,,,,,,,,,,,,,,,,,,,,,,,,,,,,,,,,,,,,,0.0064867000037338585,953.4990624,953.5322122,953.6316085000001,954.1318729000002,954.2650071,955.5312697000002,J,True,383.26310000002195,0.5070856000038475,1.1398031000039737,354,611278,611912,612266,None,0,Correct,955.5312697000002,955.7313191000001,,,,,,,,,,,,,,,,,,,,,,,,,,,,,,,,,,,,,19,20,F,Y,2022-11-10_12h03.02.739,Prime-Probe,2022.2.4,59.95387149126976,
Test,Visual_Stimuli/D_Left.png,Visual_Stimuli/T_Right.png,g,Incongruent,Congruent,0,1,1,0,7,,,,,,,,,,,,,0,22,22,22,,,,,,,,,,,,,,,,,,,,,,,,,,,,,,,,,,,,,,,,,,0.005977800004075107,956.1982787,956.2315827,956.3312953000002,956.8316766,956.9646082000002,958.2312454,G,True,366.122699999778,0.5064779000040289,1.139546500004144,343,613977,614610,614953,None,0,Correct,958.2312454,958.4311030000001,,,,,,,,,,,,,,,,,,,,,,,,,,,,,,,,,,,,,19,20,F,Y,2022-11-10_12h03.02.739,Prime-Probe,2022.2.4,59.95387149126976,
Test,Visual_Stimuli/D_Down.png,Visual_Stimuli/T_Down.png,n,Congruent,Incongruent,4,2,4,2,10,,,,,,,,,,,,,0,23,23,23,,,,,,,,,,,,,,,,,,,,,,,,,,,,,,,,,,,,,,,,,,0.0057037000042328145,958.8979027000003,958.9313635999999,959.0310391999999,959.5312279000002,959.6643237999999,960.9307646999998,N,True,332.9436999997597,0.5062196000039876,1.1391996000043036,305,616676,617310,617615,None,0,Correct,960.9307646999998,961.1306775,,,,,,,,,,,,,,,,,,,,,,,,,,,,,,,,,,,,,19,20,F,Y,2022-11-10_12h03.02.739,Prime-Probe,2022.2.4,59.95387149126976,
Test,Visual_Stimuli/D_Left.png,Visual_Stimuli/T_Right.png,g,Incongruent,Congruent,0,1,1,0,7,,,,,,,,,,,,,0,24,24,24,,,,,,,,,,,,,,,,,,,,,,,,,,,,,,,,,,,,,,,,,,0.005250800004432676,961.5980542,961.6309039999999,961.730902,962.2309309,962.3641903,963.6304410999999,G,True,332.9974999996921,0.5057611000042925,1.1387571000045682,301,619377,620011,620312,None,0,Correct,963.6304410999999,963.8303758,,,,,,,,,,,,,,,,,,,,,,,,,,,,,,,,,,,,,19,20,F,Y,2022-11-10_12h03.02.739,Prime-Probe,2022.2.4,59.95387149126976,
Test,Visual_Stimuli/D_Up.png,Visual_Stimuli/T_Up.png,j,Congruent,Incongruent,2,4,2,4,8,,,,,,,,,,,,,0,25,25,25,,,,,,,,,,,,,,,,,,,,,,,,,,,,,,,,,,,,,,,,,,0.004950900004587311,964.2975580999998,964.3309059000001,964.4304912,964.9307194,965.0636129000002,966.3301356,J,True,349.5050000001356,0.5058944000047632,1.1384926000046107,321,622076,622710,623031,None,0,Correct,966.3301356,966.5300518000001,,,,,,,,,,,,,,,,,,,,,,,,,,,,,,,,,,,,,19,20,F,Y,2022-11-10_12h03.02.739,Prime-Probe,2022.2.4,59.95387149126976,
Test,Visual_Stimuli/D_Left.png,Visual_Stimuli/T_Right.png,g,Incongruent,Congruent,0,1,1,0,7,,,,,,,,,,,,,0,26,26,26,,,,,,,,,,,,,,,,,,,,,,,,,,,,,,,,,,,,,,,,,,0.004625200004738872,966.9972220000002,967.0303157000001,967.1300529000002,967.6302898000001,967.7632682999999,969.0304039,G,True,383.0981000000975,0.5053395000045384,1.1382803000046806,358,624775,625408,625766,None,0,Correct,969.0304039,969.2297087,,,,,,,,,,,,,,,,,,,,,,,,,,,,,,,,,,,,,19,20,F,Y,2022-11-10_12h03.02.739,Prime-Probe,2022.2.4,59.95387149126976,
Test,Visual_Stimuli/D_Down.png,Visual_Stimuli/T_Up.png,j,Incongruent,Incongruent,4,2,2,4,8,,,,,,,,,,,,,0,27,27,27,,,,,,,,,,,,,,,,,,,,,,,,,,,,,,,,,,,,,,,,,,0.004282800005057652,969.6969256,969.7299715000001,969.8297116000001,970.3302501000001,970.4630325,971.7295473000001,J,True,383.1909000000451,0.5048580000047878,1.1377293000050486,359,627476,628108,628467,None,0,Correct,971.7295473000001,971.9294496,,,,,,,,,,,,,,,,,,,,,,,,,,,,,,,,,,,,,19,20,F,Y,2022-11-10_12h03.02.739,Prime-Probe,2022.2.4,59.95387149126976,
Test,Visual_Stimuli/D_Left.png,Visual_Stimuli/T_Left.png,f,Congruent,Incongruent,0,1,0,1,6,,,,,,,,,,,,,0,28,28,28,,,,,,,,,,,,,,,,,,,,,,,,,,,,,,,,,,,,,,,,,,0.004077700004927465,972.3963909000001,972.4301647,972.5297269999999,973.0298362000001,973.1626186000001,974.4292982,F,True,399.84180000010383,0.5051126000053046,1.137451600005079,364,630175,630809,631173,None,0,Correct,974.4292982,974.6292024000002,,,,,,,,,,,,,,,,,,,,,,,,,,,,,,,,,,,,,19,20,F,Y,2022-11-10_12h03.02.739,Prime-Probe,2022.2.4,59.95387149126976,
Test,Visual_Stimuli/D_Up.png,Visual_Stimuli/T_Up.png,j,Congruent,Congruent,2,4,2,4,8,,,,,,,,,,,,,0,29,29,29,,,,,,,,,,,,,,,,,,,,,,,,,,,,,,,,,,,,,,,,,,0.0037802000051669893,975.0963643000002,975.1293632,975.2292014000002,975.7293861999999,975.8623058000001,977.1288768000002,J,True,333.1833000002007,0.5043205000051785,1.1371446000052856,307,632874,633507,633814,None,0,Correct,977.1288768000002,977.3296679000002,,,,,,,,,,,,,,,,,,,,,,,,,,,,,,,,,,,,,19,20,F,Y,2022-11-10_12h03.02.739,Prime-Probe,2022.2.4,59.95387149126976,
Test,Visual_Stimuli/D_Right.png,Visual_Stimuli/T_Right.png,g,Congruent,Congruent,1,0,1,0,7,,,,,,,,,,,,,0,30,30,30,,,,,,,,,,,,,,,,,,,,,,,,,,,,,,,,,,,,,,,,,,0.004324700005327031,977.7957340999999,977.8290089999998,977.9288070999999,978.4292051999998,978.5619859000001,979.8287410999999,G,True,399.2167999999765,0.503855300005398,1.1372777000055976,375,635575,636206,636581,None,0,Correct,979.8287410999999,980.0286675,,,,,,,,,,,,,,,,,,,,,,,,,,,,,,,,,,,,,19,20,F,Y,2022-11-10_12h03.02.739,Prime-Probe,2022.2.4,59.95387149126976,
Test,Visual_Stimuli/D_Up.png,Visual_Stimuli/T_Up.png,j,Congruent,Congruent,2,4,2,4,8,,,,,,,,,,,,,0,31,31,31,,,,,,,,,,,,,,,,,,,,,,,,,,,,,,,,,,,,,,,,,,0.0032473000055688317,980.4955080000002,980.5287397,980.6284862999998,981.1287553,981.2617615000001,982.5282060000002,J,True,333.4868000001734,0.5035891000056836,1.1365789000055884,303,638274,638908,639211,None,0,Correct,982.5282060000002,982.7281879999998,,,,,,,,,,,,,,,,,,,,,,,,,,,,,,,,,,,,,19,20,F,Y,2022-11-10_12h03.02.739,Prime-Probe,2022.2.4,59.95387149126976,
Test,Visual_Stimuli/D_Left.png,Visual_Stimuli/T_Right.png,g,Incongruent,Congruent,0,1,1,0,7,,,,,,,,,,,,,0,32,32,32,,,,,,,,,,,,,,,,,,,,,,,,,,,,,,,,,,,,,,,,,,0.0027693000056387973,983.1951761000003,983.2285545000002,983.3281814,983.828248,983.9614752999998,985.2283204000003,G,True,349.67090000009193,0.5034886000057668,1.136291600005734,327,640973,641607,641934,None,0,Correct,985.2283204000003,985.4278606999999,,,,,,,,,,,,,,,,,,,,,,,,,,,,,,,,,,,,,19,20,F,Y,2022-11-10_12h03.02.739,Prime-Probe,2022.2.4,59.95387149126976,
Test,Visual_Stimuli/D_Down.png,Visual_Stimuli/T_Down.png,n,Congruent,Incongruent,4,2,4,2,10,,,,,,,,,,,,,0,33,33,33,,,,,,,,,,,,,,,,,,,,,,,,,,,,,,,,,,,,,,,,,,0.0024739000059526006,985.8949616000002,985.9280727000003,986.0277978000001,986.5281785999998,986.6613923000002,987.9276533999998,N,True,383.12020000012126,0.5029235000060908,1.1359822000058557,359,643672,644306,644665,None,0,Correct,987.9276533999998,988.1276177000002,,,,,,,,,,,,,,,,,,,,,,,,,,,,,,,,,,,,,19,20,F,Y,2022-11-10_12h03.02.739,Prime-Probe,2022.2.4,59.95387149126976,
Test,Visual_Stimuli/D_Right.png,Visual_Stimuli/T_Right.png,g,Congruent,Congruent,1,0,1,0,7,,,,,,,,,,,,,0,34,34,34,,,,,,,,,,,,,,,,,,,,,,,,,,,,,,,,,,,,,,,,,,0.0021902000062254956,988.5945275000001,988.6278638000001,988.7276512999999,989.2280047000002,989.3606677999999,990.627455,G,True,349.7152999998434,0.5027643000062199,1.1355891000062002,329,646373,647004,647333,None,0,Correct,990.627455,990.8273375000001,,,,,,,,,,,,,,,,,,,,,,,,,,,,,,,,,,,,,19,20,F,Y,2022-11-10_12h03.02.739,Prime-Probe,2022.2.4,59.95387149126976,
Test,Visual_Stimuli/D_Up.png,Visual_Stimuli/T_Up.png,j,Congruent,Congruent,2,4,2,4,8,,,,,,,,,,,,,0,35,35,35,,,,,,,,,,,,,,,,,,,,,,,,,,,,,,,,,,,,,,,,,,0.0019316000061735394,991.2942129999999,991.3274380999999,991.4273046999999,991.9277451,992.0605244999999,993.327215,J,True,349.67400000005,0.5022727000064151,1.135340900006213,320,649072,649706,650026,None,0,Correct,993.327215,993.5271445999999,,,,,,,,,,,,,,,,,,,,,,,,,,,,,,,,,,,,,19,20,F,Y,2022-11-10_12h03.02.739,Prime-Probe,2022.2.4,59.95387149126976,
Test,Visual_Stimuli/D_Right.png,Visual_Stimuli/T_Right.png,g,Congruent,Congruent,1,0,1,0,7,,,,,,,,,,,,,0,36,36,36,,,,,,,,,,,,,,,,,,,,,,,,,,,,,,,,,,,,,,,,,,0.0018288000064785592,993.9939608000002,994.0272434000001,994.1270241,994.6274396000001,994.7601554999999,996.0266583999999,G,True,366.56509999966147,0.5022127000065666,1.134995000006711,339,651771,652405,652744,None,0,Correct,996.0266583999999,996.2266900000002,,,,,,,,,,,,,,,,,,,,,,,,,,,,,,,,,,,,,19,20,F,Y,2022-11-10_12h03.02.739,Prime-Probe,2022.2.4,59.95387149126976,
Test,Visual_Stimuli/D_Up.png,Visual_Stimuli/T_Up.png,j,Congruent,Congruent,2,4,2,4,8,,,,,,,,,,,,,0,37,37,37,,,,,,,,,,,,,,,,,,,,,,,,,,,,,,,,,,,,,,,,,,0.0012770000066666398,996.6935933000002,996.7270372,996.8269981999999,997.3269950000001,997.4600384000003,998.7263746000001,J,True,483.24449999972785,0.5018928000067717,1.1348232000068492,456,654470,655103,655559,None,0,Correct,998.7263746000001,998.9265232999999,,,,,,,,,,,,,,,,,,,,,,,,,,,,,,,,,,,,,19,20,F,Y,2022-11-10_12h03.02.739,Prime-Probe,2022.2.4,59.95387149126976,
Test,Visual_Stimuli/D_Left.png,Visual_Stimuli/T_Left.png,f,Congruent,Congruent,0,1,0,1,6,,,,,,,,,,,,,0,38,38,38,,,,,,,,,,,,,,,,,,,,,,,,,,,,,,,,,,,,,,,,,,0.0011160000067320652,999.3933301,999.4266057000002,999.5263262999999,1000.0268297,1000.1595555000001,1001.4260163000001,F,True,433.0230999999003,0.5015059000070323,1.1344121000070118,405,657171,657805,658210,None,0,Correct,1001.4260163000001,1001.6261348,,,,,,,,,,,,,,,,,,,,,,,,,,,,,,,,,,,,,19,20,F,Y,2022-11-10_12h03.02.739,Prime-Probe,2022.2.4,59.95387149126976,
Test,Visual_Stimuli/D_Down.png,Visual_Stimuli/T_Down.png,n,Congruent,Congruent,4,2,4,2,10,,,,,,,,,,,,,0,39,39,39,,,,,,,,,,,,,,,,,,,,,,,,,,,,,,,,,,,,,,,,,,0.0007097000070643844,1002.0929162999998,1002.1264041000002,1002.2259526,1002.7262447999999,1002.8595283000002,1004.1258260000002,G,False,466.4029999999002,0.5013533000069401,1.1340907000071638,435,659870,660504,660939,None,0,Incorrect,1004.1258260000002,1004.3257509000002,,,,,,,,,,,,,,,,,,,,,,,,,,,,,,,,,,,,,19,20,F,Y,2022-11-10_12h03.02.739,Prime-Probe,2022.2.4,59.95387149126976,
Test,Visual_Stimuli/D_Right.png,Visual_Stimuli/T_Right.png,g,Congruent,Congruent,1,0,1,0,7,,,,,,,,,,,,,0,40,40,40,,,,,,,,,,,,,,,,,,,,,,,,,,,,,,,,,,,,,,,,,,0.00033060000714613125,1004.7927794,1004.8260217,1004.9258384000002,1005.4260611000002,1005.5590407000002,1006.8254414,G,True,499.0566999999828,0.5009209000072588,1.134214400007295,468,662569,663202,663670,None,0,Correct,1006.8254414,1007.0257828000001,,,,,,,,,,,,,,,,,,,,,,,,,,,,,,,,,,,,,19,20,F,Y,2022-11-10_12h03.02.739,Prime-Probe,2022.2.4,59.95387149126976,
Test,Visual_Stimuli/D_Down.png,Visual_Stimuli/T_Down.png,n,Congruent,Congruent,4,2,4,2,10,,,,,,,,,,,,,0,41,41,41,,,,,,,,,,,,,,,,,,,,,,,,,,,,,,,,,,,,,,,,,,0.0003870000073220581,1007.4925633,1007.5256470000002,1007.6254683999998,1008.1262239,1008.2587541999999,1009.5253837000002,N,True,349.83439999996335,0.5005866000074093,1.133729200007565,323,665270,665901,666224,None,0,Correct,1009.5253837000002,1009.7250207,,,,,,,,,,,,,,,,,,,,,,,,,,,,,,,,,,,,,19,20,F,Y,2022-11-10_12h03.02.739,Prime-Probe,2022.2.4,59.95387149126976,
Test,Visual_Stimuli/D_Left.png,Visual_Stimuli/T_Right.png,g,Incongruent,Congruent,0,1,1,0,7,,,,,,,,,,,,,0,42,42,42,,,,,,,,,,,,,,,,,,,,,,,,,,,,,,,,,,,,,,,,,,-0.0003858999921249051,1010.1921591000003,1010.2255309999998,1010.3252066000002,1010.8254444000002,1010.9582917,1012.2248519000002,G,True,482.719100000395,0.5004048000078001,1.1500165000074958,453,667969,668619,669072,None,0,Correct,1012.2248519000002,1012.4249584000002,,,,,,,,,,,,,,,,,,,,,,,,,,,,,,,,,,,,,19,20,F,Y,2022-11-10_12h03.02.739,Prime-Probe,2022.2.4,59.95387149126976,
Test,Visual_Stimuli/D_Down.png,Visual_Stimuli/T_Down.png,n,Congruent,Incongruent,4,2,4,2,10,,,,,,,,,,,,,0,43,43,43,,,,,,,,,,,,,,,,,,,,,,,,,,,,,,,,,,,,,,,,,,-0.00041099999225480133,1012.8915835999999,1012.9249148000001,1013.0248302000002,1013.5250884999998,1013.6583082999998,1014.9246114999999,N,True,349.74770000007993,0.5162144000078115,1.1494573000077253,323,670686,671317,671640,None,0,Correct,1014.9246114999999,1015.1245035,,,,,,,,,,,,,,,,,,,,,,,,,,,,,,,,,,,,,19,20,F,Y,2022-11-10_12h03.02.739,Prime-Probe,2022.2.4,59.95387149126976,
Test,Visual_Stimuli/D_Right.png,Visual_Stimuli/T_Right.png,g,Congruent,Congruent,1,0,1,0,7,,,,,,,,,,,,,0,44,44,44,,,,,,,,,,,,,,,,,,,,,,,,,,,,,,,,,,,,,,,,,,-0.0009036999917952926,1015.6080754000002,1015.6247704999998,1015.7410293999999,1016.2412686999999,1016.3743571000002,1017.6242055,G,True,349.69679999994696,0.5160437000081401,1.149204400007875,320,673385,674019,674339,None,0,Correct,1017.6408887,1017.8408526999999,,,,,,,,,,,,,,,,,,,,,,,,,,,,,,,,,,,,,19,20,F,Y,2022-11-10_12h03.02.739,Prime-Probe,2022.2.4,59.95387149126976,
Test,Visual_Stimuli/D_Up.png,Visual_Stimuli/T_Up.png,j,Congruent,Congruent,2,4,2,4,8,,,,,,,,,,,,,0,45,45,45,,,,,,,,,,,,,,,,,,,,,,,,,,,,,,,,,,,,,,,,,,-0.00023509999164161854,1018.3079273999999,1018.3244093000001,1018.4408160999999,1018.9409726000001,1019.0741707,1020.323924,J,True,366.5062999998554,0.5155901000080121,1.1488634000083948,333,676084,676718,677051,None,0,Correct,1020.340531,1020.5407560000001,,,,,,,,,,,,,,,,,,,,,,,,,,,,,,,,,,,,,19,20,F,Y,2022-11-10_12h03.02.739,Prime-Probe,2022.2.4,59.95387149126976,
Test,Visual_Stimuli/D_Right.png,Visual_Stimuli/T_Right.png,g,Congruent,Congruent,1,0,1,0,7,,,,,,,,,,,,,0,46,46,46,,,,,,,,,,,,,,,,,,,,,,,,,,,,,,,,,,,,,,,,,,-0.00045559999171018717,1021.0076508,1021.0406442000001,1021.140521,1021.6407032,1021.7738031000001,1023.0403254999999,G,True,266.43060000014884,0.5156436000083886,1.148508300008416,245,678783,679416,679661,None,0,Correct,1023.0403254999999,1023.2402095,,,,,,,,,,,,,,,,,,,,,,,,,,,,,,,,,,,,,19,20,F,Y,2022-11-10_12h03.02.739,Prime-Probe,2022.2.4,59.95387149126976,
Test,Visual_Stimuli/D_Up.png,Visual_Stimuli/T_Down.png,n,Incongruent,Congruent,2,4,4,2,10,,,,,,,,,,,,,0,47,47,47,,,,,,,,,,,,,,,,,,,,,,,,,,,,,,,,,,,,,,,,,,-0.0007722999912402884,1023.7075382999999,1023.7404331,1023.8401044999998,1024.3404511,1024.4734608,1025.7398930000002,N,True,399.6724000003269,0.5152914000086639,1.1483590000084405,379,681484,682115,682494,None,0,Correct,1025.7398930000002,1025.9399389000002,,,,,,,,,,,,,,,,,,,,,,,,,,,,,,,,,,,,,19,20,F,Y,2022-11-10_12h03.02.739,Prime-Probe,2022.2.4,59.95387149126976,
Test,Visual_Stimuli/D_Left.png,Visual_Stimuli/T_Left.png,f,Congruent,Incongruent,0,1,0,1,6,,,,,,,,,,,,,0,48,48,48,,,,,,,,,,,,,,,,,,,,,,,,,,,,,,,,,,,,,,,,,,0.014534500008721807,1026.4070278000002,1026.4400035,1026.5401716,1027.0403233,1027.1730340000001,1028.4396688,F,True,382.9364000002897,0.5148101000086172,1.1479715000086799,350,684183,684817,685167,None,0,Correct,1028.4396688,1028.6395886000003,,,,,,,,,,,,,,,,,,,,,,,,,,,,,,,,,,,,,19,20,F,Y,2022-11-10_12h03.02.739,Prime-Probe,2022.2.4,59.95387149126976,
Test,Visual_Stimuli/D_Down.png,Visual_Stimuli/T_Up.png,j,Incongruent,Congruent,4,2,2,4,8,,,,,,,,,,,,,0,49,49,49,,,,,,,,,,,,,,,,,,,,,,,,,,,,,,,,,,,,,,,,,,0.014185200008796528,1029.1065073000002,1029.1399334999999,1029.2397005,1029.7398230000001,1029.8727956,1031.1396255000002,J,True,533.2365000003847,0.5148661000089305,1.1475887000087823,502,686882,687515,688017,None,0,Correct,1031.1396255000002,1031.3392568000002,,,,,,,,,,,,,,,,,,,,,,,,,,,,,,,,,,,,,19,20,F,Y,2022-11-10_12h03.02.739,Prime-Probe,2022.2.4,59.95387149126976,
Test,Visual_Stimuli/D_Right.png,Visual_Stimuli/T_Left.png,f,Incongruent,Incongruent,1,0,0,1,6,,,,,,,,,,,,,0,50,50,50,,,,,,,,,,,,,,,,,,,,,,,,,,,,,,,,,,,,,,,,,,0.013833800009251718,1031.8063407000002,1031.8395647,1031.9391703,1032.4395926,1032.5725347999999,1033.8394713,F,True,399.6471999998903,0.5144577000091886,1.1473085000093306,377,689582,690216,690593,None,0,Correct,1033.8394713,1034.0393772999998,,,,,,,,,,,,,,,,,,,,,,,,,,,,,,,,,,,,,19,20,F,Y,2022-11-10_12h03.02.739,Prime-Probe,2022.2.4,59.95387149126976,
Test,Visual_Stimuli/D_Up.png,Visual_Stimuli/T_Down.png,n,Incongruent,Incongruent,2,4,4,2,10,,,,,,,,,,,,,0,51,51,51,,,,,,,,,,,,,,,,,,,,,,,,,,,,,,,,,,,,,,,,,,0.013956200009488384,1034.5059876000003,1034.5391115999998,1034.6389431999999,1035.1391495999999,1035.2721792999998,1036.5386485000001,N,True,433.14139999984036,0.5139480000093499,1.1469220000094538,403,692282,692916,693319,None,0,Correct,1036.5386485000001,1036.7387789000002,,,,,,,,,,,,,,,,,,,,,,,,,,,,,,,,,,,,,19,20,F,Y,2022-11-10_12h03.02.739,Prime-Probe,2022.2.4,59.95387149126976,
Test,Visual_Stimuli/D_Left.png,Visual_Stimuli/T_Left.png,f,Congruent,Incongruent,0,1,0,1,6,,,,,,,,,,,,,0,52,52,52,,,,,,,,,,,,,,,,,,,,,,,,,,,,,,,,,,,,,,,,,,0.013377300009324244,1037.2061958000002,1037.2392510000002,1037.3386392999998,1037.8389965,1037.9718896000002,1039.2383401,F,True,383.13849999985905,0.5141579000096499,1.146717300009641,350,694981,695615,695965,None,0,Correct,1039.2383401,1039.4383404000002,,,,,,,,,,,,,,,,,,,,,,,,,,,,,,,,,,,,,19,20,F,Y,2022-11-10_12h03.02.739,Prime-Probe,2022.2.4,59.95387149126976,
Test,Visual_Stimuli/D_Up.png,Visual_Stimuli/T_Down.png,n,Incongruent,Congruent,2,4,4,2,10,,,,,,,,,,,,,0,53,53,53,,,,,,,,,,,,,,,,,,,,,,,,,,,,,,,,,,,,,,,,,,0.012916900009713572,1039.9053977,1039.9389454,1040.0382594999999,1040.5385451,1040.6715688000002,1041.9382552999998,N,True,549.5452999998633,0.513876400009849,1.1466711000098258,520,697680,698313,698833,None,0,Correct,1041.9382552999998,1042.1380726,,,,,,,,,,,,,,,,,,,,,,,,,,,,,,,,,,,,,19,20,F,Y,2022-11-10_12h03.02.739,Prime-Probe,2022.2.4,59.95387149126976,
Test,Visual_Stimuli/D_Left.png,Visual_Stimuli/T_Right.png,g,Incongruent,Incongruent,0,1,1,0,7,,,,,,,,,,,,,0,54,54,54,,,,,,,,,,,,,,,,,,,,,,,,,,,,,,,,,,,,,,,,,,0.012649200009946071,1042.6050670000002,1042.6381918,1042.7381429999998,1043.2382171000002,1043.3719979,1044.6376892,G,True,399.957699999959,0.5130860000099347,1.1464025000100264,375,700380,701014,701389,None,0,Correct,1044.6376892,1044.8380347,,,,,,,,,,,,,,,,,,,,,,,,,,,,,,,,,,,,,19,20,F,Y,2022-11-10_12h03.02.739,Prime-Probe,2022.2.4,59.95387149126976,
Test,Visual_Stimuli/D_Up.png,Visual_Stimuli/T_Down.png,n,Incongruent,Incongruent,2,4,4,2,10,,,,,,,,,,,,,0,55,55,55,,,,,,,,,,,,,,,,,,,,,,,,,,,,,,,,,,,,,,,,,,0.012612900010026351,1045.3047648,1045.3381981999999,1045.4378290000002,1045.9378955,1046.0709316,1047.337557,N,True,349.78559999990466,0.513068500009922,1.1457011000102284,316,703080,703714,704030,None,0,Correct,1047.337557,1047.5374484000001,,,,,,,,,,,,,,,,,,,,,,,,,,,,,,,,,,,,,19,20,F,Y,2022-11-10_12h03.02.739,Prime-Probe,2022.2.4,59.95387149126976,
Test,Visual_Stimuli/D_Left.png,Visual_Stimuli/T_Right.png,g,Incongruent,Incongruent,0,1,1,0,7,,,,,,,,,,,,,0,56,56,56,,,,,,,,,,,,,,,,,,,,,,,,,,,,,,,,,,,,,,,,,,0.012021100010315422,1048.0044378,1048.0375897000001,1048.1378296999999,1048.6378468,1048.7710731,1050.0372451,G,True,299.8013000001265,0.5124546000101873,1.1453649000100086,276,705779,706413,706689,None,0,Correct,1050.0372451,1050.2371742000003,,,,,,,,,,,,,,,,,,,,,,,,,,,,,,,,,,,,,19,20,F,Y,2022-11-10_12h03.02.739,Prime-Probe,2022.2.4,59.95387149126976,
Test,Visual_Stimuli/D_Down.png,Visual_Stimuli/T_Up.png,j,Incongruent,Incongruent,4,2,2,4,8,,,,,,,,,,,,,0,57,57,57,,,,,,,,,,,,,,,,,,,,,,,,,,,,,,,,,,,,,,,,,,0.011751300010473642,1050.7041169000001,1050.7373633,1050.8370627000002,1051.3379047,1051.4705728000001,1052.7370578000002,J,True,298.89819999971223,0.5123449000102482,1.1460462000104599,268,708478,709112,709380,None,0,Correct,1052.7370578000002,1052.9368445000002,,,,,,,,,,,,,,,,,,,,,,,,,,,,,,,,,,,,,19,20,F,Y,2022-11-10_12h03.02.739,Prime-Probe,2022.2.4,59.95387149126976,
Test,Visual_Stimuli/D_Left.png,Visual_Stimuli/T_Right.png,g,Incongruent,Incongruent,0,1,1,0,7,,,,,,,,,,,,,0,58,58,58,,,,,,,,,,,,,,,,,,,,,,,,,,,,,,,,,,,,,,,,,,0.011458800010586856,1053.403772,1053.4369356,1053.5368194999999,1054.0371051,1054.1700730999999,1055.4366630000002,G,True,249.4395000003351,0.5118385000105263,1.1452009000104226,215,711180,711810,712025,None,0,Correct,1055.4366630000002,1055.6367759000002,,,,,,,,,,,,,,,,,,,,,,,,,,,,,,,,,,,,,19,20,F,Y,2022-11-10_12h03.02.739,Prime-Probe,2022.2.4,59.95387149126976,
Test,Visual_Stimuli/D_Down.png,Visual_Stimuli/T_Up.png,j,Incongruent,Incongruent,4,2,2,4,8,,,,,,,,,,,,,0,59,59,59,,,,,,,,,,,,,,,,,,,,,,,,,,,,,,,,,,,,,,,,,,0.011354300010680163,1056.1034080000002,1056.1368472000001,1056.2364690000002,1056.7365794999998,1056.8697994000001,1058.1362511,J,True,316.59010000021226,0.511761800010845,1.1444335000105639,290,713878,714512,714802,None,0,Correct,1058.1362511,1058.3360871000002,,,,,,,,,,,,,,,,,,,,,,,,,,,,,,,,,,,,,19,20,F,Y,2022-11-10_12h03.02.739,Prime-Probe,2022.2.4,59.95387149126976,
Test,Visual_Stimuli/D_Right.png,Visual_Stimuli/T_Left.png,f,Incongruent,Incongruent,1,0,0,1,6,,,,,,,,,,,,,0,60,60,60,,,,,,,,,,,,,,,,,,,,,,,,,,,,,,,,,,,,,,,,,,0.010662700010925619,1058.8031526000002,1058.8364444000001,1058.9361714,1059.4363389000002,1059.5694517,1060.8359539,F,True,466.37620000001334,0.5113600000108818,1.1443072000110988,437,716577,717211,717648,None,0,Correct,1060.8359539,1061.0358604,,,,,,,,,,,,,,,,,,,,,,,,,,,,,,,,,,,,,19,20,F,Y,2022-11-10_12h03.02.739,Prime-Probe,2022.2.4,59.95387149126976,
Test,Visual_Stimuli/D_Down.png,Visual_Stimuli/T_Up.png,j,Incongruent,Incongruent,4,2,2,4,8,,,,,,,,,,,,,0,61,61,61,,,,,,,,,,,,,,,,,,,,,,,,,,,,,,,,,,,,,,,,,,0.010466700010965724,1061.5028100000002,1061.5362481,1061.6359218999999,1062.1361293000002,1062.269067,1063.5355418000001,J,True,216.43009999979768,0.5111624000110169,1.1440008000113266,191,719278,719909,720100,None,0,Correct,1063.5355418000001,1063.735726,,,,,,,,,,,,,,,,,,,,,,,,,,,,,,,,,,,,,19,20,F,Y,2022-11-10_12h03.02.739,Prime-Probe,2022.2.4,59.95387149126976,
Test,Visual_Stimuli/D_Right.png,Visual_Stimuli/T_Right.png,g,Congruent,Incongruent,1,0,1,0,7,,,,,,,,,,,,,0,62,62,62,,,,,,,,,,,,,,,,,,,,,,,,,,,,,,,,,,,,,,,,,,0.010354600011396542,1064.2024093000002,1064.2357199,1064.3356502,1064.8357511000002,1064.9692173,1066.2355791000002,G,True,382.83910000018295,0.510610600011205,1.143706000011207,354,721977,722610,722964,None,0,Correct,1066.2355791000002,1066.4353321,,,,,,,,,,,,,,,,,,,,,,,,,,,,,,,,,,,,,19,20,F,Y,2022-11-10_12h03.02.739,Prime-Probe,2022.2.4,59.95387149126976,
Test,Visual_Stimuli/D_Up.png,Visual_Stimuli/T_Down.png,n,Incongruent,Congruent,2,4,4,2,10,,,,,,,,,,,,,0,63,63,63,,,,,,,,,,,,,,,,,,,,,,,,,,,,,,,,,,,,,,,,,,0.00991090001161865,1066.9021782000002,1066.9355486000002,1067.0351733,1067.5353948,1067.6685542000002,1068.9351927,N,True,332.74970000002213,0.5104447000117034,1.1436139000115872,305,724676,725310,725615,None,0,Correct,1068.9351927,1069.135148,,,,,,,,,,,,,,,,,,,,,,,,,,,,,,,,,,,,,19,20,F,Y,2022-11-10_12h03.02.739,Prime-Probe,2022.2.4,59.95387149126976,
Test,Visual_Stimuli/D_Right.png,Visual_Stimuli/T_Right.png,g,Congruent,Incongruent,1,0,1,0,7,,,,,,,,,,,,,0,64,64,64,,,,,,,,,,,,,,,,,,,,,,,,,,,,,,,,,,,,,,,,,,0.009741200011831097,1069.6018847000003,1069.6353277,1069.7350887999999,1070.2350663,1070.3685134999998,1071.6349883999999,G,True,349.5736999998371,0.5103059000116446,1.1430778000117243,314,727375,728009,728323,None,0,Correct,1071.6349883999999,1071.8346591000002,,,,,,,,,,,,,,,,,,,,,,,,,,,,,,,,,,,,,19,20,F,Y,2022-11-10_12h03.02.739,Prime-Probe,2022.2.4,59.95387149126976,
Test,Visual_Stimuli/D_Up.png,Visual_Stimuli/T_Down.png,n,Incongruent,Congruent,2,4,4,2,10,,,,,,,,,,,,,0,65,65,65,,,,,,,,,,,,,,,,,,,,,,,,,,,,,,,,,,,,,,,,,,0.009253400011857593,1072.301878,1072.3347635000002,1072.4345704999998,1072.9348490999998,1073.0677935,1074.3343776,N,True,249.97389999998632,0.5096413000119355,1.142634600011661,226,730076,730709,730935,None,0,Correct,1074.3343776,1074.5343559,,,,,,,,,,,,,,,,,,,,,,,,,,,,,,,,,,,,,19,20,F,Y,2022-11-10_12h03.02.739,Prime-Probe,2022.2.4,59.95387149126976,
Test,Visual_Stimuli/D_Left.png,Visual_Stimuli/T_Left.png,f,Congruent,Incongruent,0,1,0,1,6,,,,,,,,,,,,,0,66,66,66,,,,,,,,,,,,,,,,,,,,,,,,,,,,,,,,,,,,,,,,,,0.008993100012048671,1075.0011867,1075.0348058000002,1075.1344746000002,1075.6347104,1075.7675875000002,1077.0340182000002,F,True,382.9734000000826,0.5097310000119251,1.1423598000119455,359,732775,733409,733768,None,0,Correct,1077.0340182000002,1077.2342946,,,,,,,,,,,,,,,,,,,,,,,,,,,,,,,,,,,,,19,20,F,Y,2022-11-10_12h03.02.739,Prime-Probe,2022.2.4,59.95387149126976,
Test,Visual_Stimuli/D_Up.png,Visual_Stimuli/T_Down.png,n,Incongruent,Congruent,2,4,4,2,10,,,,,,,,,,,,,0,67,67,67,,,,,,,,,,,,,,,,,,,,,,,,,,,,,,,,,,,,,,,,,,0.008870300012404186,1077.7009234,1077.7341964999998,1077.8339434000002,1078.3342098,1078.4673030000001,1079.7338364999998,N,True,333.15349999975297,0.5092629000123452,1.1420093000124325,299,735474,736108,736407,None,0,Correct,1079.7338364999998,1079.933729,,,,,,,,,,,,,,,,,,,,,,,,,,,,,,,,,,,,,19,20,F,Y,2022-11-10_12h03.02.739,Prime-Probe,2022.2.4,59.95387149126976,
Test,Visual_Stimuli/D_Left.png,Visual_Stimuli/T_Left.png,f,Congruent,Incongruent,0,1,0,1,6,,,,,,,,,,,,,0,68,68,68,,,,,,,,,,,,,,,,,,,,,,,,,,,,,,,,,,,,,,,,,,0.008360200012248242,1080.4005364000002,1080.4338864,1080.5336952999999,1081.033988,1081.1669994000001,1082.4336626000002,F,True,366.35960000012346,0.508799900012491,1.141745000012179,333,738175,738807,739140,None,0,Correct,1082.4336626000002,1082.6333888000001,,,,,,,,,,,,,,,,,,,,,,,,,,,,,,,,,,,,,19,20,F,Y,2022-11-10_12h03.02.739,Prime-Probe,2022.2.4,59.95387149126976,
Test,Visual_Stimuli/D_Down.png,Visual_Stimuli/T_Up.png,j,Incongruent,Congruent,4,2,2,4,8,,,,,,,,,,,,,0,69,69,69,,,,,,,,,,,,,,,,,,,,,,,,,,,,,,,,,,,,,,,,,,0.007963900012782688,1083.1006343000001,1083.1336448,1083.2334033999998,1083.7336713000002,1083.8665608,1085.1331272,J,True,299.7107999999571,0.5087332000125571,1.1414796000126444,275,740874,741507,741782,None,0,Correct,1085.1331272,1085.3331547,,,,,,,,,,,,,,,,,,,,,,,,,,,,,,,,,,,,,19,20,F,Y,2022-11-10_12h03.02.739,Prime-Probe,2022.2.4,59.95387149126976,
Test,Visual_Stimuli/D_Left.png,Visual_Stimuli/T_Left.png,f,Congruent,Incongruent,0,1,0,1,6,,,,,,,,,,,,,0,70,70,70,,,,,,,,,,,,,,,,,,,,,,,,,,,,,,,,,,,,,,,,,,0.007731900012913684,1085.8002087000002,1085.8331933000002,1085.9330883,1086.4333125,1086.5663367,1087.8327591,F,True,332.63769999985016,0.5081139000126313,1.1414662000129283,302,743573,744207,744509,None,0,Correct,1087.8327591,1088.0329554000002,,,,,,,,,,,,,,,,,,,,,,,,,,,,,,,,,,,,,19,20,F,Y,2022-11-10_12h03.02.739,Prime-Probe,2022.2.4,59.95387149126976,
Test,Visual_Stimuli/D_Down.png,Visual_Stimuli/T_Up.png,j,Incongruent,Congruent,4,2,2,4,8,,,,,,,,,,,,,0,71,71,71,,,,,,,,,,,,,,,,,,,,,,,,,,,,,,,,,,,,,,,,,,0.0075720000131696,1088.5000505,1088.5328714999998,1088.6326815,1089.1329222000002,1089.2659698,1090.5324635,J,True,299.7104000000945,0.5077570000130436,1.140905400012798,276,746272,746906,747182,None,0,Correct,1090.5324635,1091.2281828000002,,,,,,,,,,,,,,,,,,,,,,,,,,,,,,,,,,,,,19,20,F,Y,2022-11-10_12h03.02.739,Prime-Probe,2022.2.4,59.95387149126976,
,,,,,,,,,,,,,,,,,,,,,,,,,,,,,,,,,,,,,,,,,,,,,,,,,,,,,,,,,,,,,,,,,,,,,,,,,,,,,,,,,,,,,,,,,,,,1118.9203932000003,1118.9203932000003,None,,,,,1091.2281828000002,1091.2281828000002,,,,,,,,,,,,,,,,,,,,,,,,,19,20,F,Y,2022-11-10_12h03.02.739,Prime-Probe,2022.2.4,59.95387149126976,
Test,Visual_Stimuli/D_Left.png,Visual_Stimuli/T_Right.png,g,Incongruent,None,0,1,1,0,7,,,,,,,,,,,,,,,,,0,0,0,0,,,,,,,,,,,,,,,,,,,,,,,,,,,,,,,,,,1123.4455312000002,1125.2452501999999,1125.2452501999999,1125.4452485,0.005719799999951647,1125.9121815,1125.9453113000002,1126.0452278999999,1126.5454295000002,1126.678263,1127.9449665,G,True,399.4282000003295,0.5132273999997778,1.146707399999741,362,783684,784318,784680,None,0,Correct,1127.9449665,1128.1448633000002,,,,,,,,,,,,,,,,,,,,,,,,,,,,,,,,,,,,,19,20,F,Y,2022-11-10_12h03.02.739,Prime-Probe,2022.2.4,59.95387149126976,
Test,Visual_Stimuli/D_Down.png,Visual_Stimuli/T_Down.png,n,Congruent,Incongruent,4,2,4,2,10,,,,,,,,,,,,,,,,,0,1,1,1,,,,,,,,,,,,,,,,,,,,,,,,,,,,,,,,,,,,,,0.012464400000226306,1128.6117398,1128.6451026000002,1128.7447553,1129.2453226999999,1129.3780952,1130.6449301999999,N,True,349.6029000002636,0.5129781999999068,1.145910400000048,316,786383,787017,787333,None,0,Correct,1130.6449301999999,1130.8445736,,,,,,,,,,,,,,,,,,,,,,,,,,,,,,,,,,,,,19,20,F,Y,2022-11-10_12h03.02.739,Prime-Probe,2022.2.4,59.95387149126976,
Test,Visual_Stimuli/D_Left.png,Visual_Stimuli/T_Right.png,g,Incongruent,Congruent,0,1,1,0,7,,,,,,,,,,,,,,,,,0,2,2,2,,,,,,,,,,,,,,,,,,,,,,,,,,,,,,,,,,,,,,0.012189100000341568,1131.3114964,1131.3446873999999,1131.4445807999998,1131.9447705999999,1132.0778102000002,1133.3441719999998,G,True,349.7976999997263,0.5125934000002417,1.1455173000003924,320,789082,789715,790035,None,0,Correct,1133.3441719999998,1133.5443409000002,,,,,,,,,,,,,,,,,,,,,,,,,,,,,,,,,,,,,19,20,F,Y,2022-11-10_12h03.02.739,Prime-Probe,2022.2.4,59.95387149126976,
Test,Visual_Stimuli/D_Down.png,Visual_Stimuli/T_Down.png,n,Congruent,Incongruent,4,2,4,2,10,,,,,,,,,,,,,,,,,0,3,3,3,,,,,,,,,,,,,,,,,,,,,,,,,,,,,,,,,,,,,,0.011938000000554894,1134.011119,1134.0444137000002,1134.1441542,1134.6445291000002,1134.7773416000002,1136.0439954,N,True,366.43299999968804,0.5124739000002592,1.145252700000583,336,791783,792415,792751,None,0,Correct,1136.0439954,1136.2440592,,,,,,,,,,,,,,,,,,,,,,,,,,,,,,,,,,,,,19,20,F,Y,2022-11-10_12h03.02.739,Prime-Probe,2022.2.4,59.95387149126976,
Test,Visual_Stimuli/D_Right.png,Visual_Stimuli/T_Left.png,f,Incongruent,Congruent,1,0,0,1,6,,,,,,,,,,,,,,,,,0,4,4,4,,,,,,,,,,,,,,,,,,,,,,,,,,,,,,,,,,,,,,0.011655500000870234,1136.7108263000002,1136.7441319000002,1136.8439068999999,1137.3440672,1137.4773797999999,1138.7435767,F,True,549.571399999877,0.5121721000004982,1.1453499000008378,513,794482,795116,795629,None,0,Correct,1138.7435767,1138.9436303999998,,,,,,,,,,,,,,,,,,,,,,,,,,,,,,,,,,,,,19,20,F,Y,2022-11-10_12h03.02.739,Prime-Probe,2022.2.4,59.95387149126976,
Test,Visual_Stimuli/D_Down.png,Visual_Stimuli/T_Down.png,n,Congruent,Incongruent,4,2,4,2,10,,,,,,,,,,,,,,,,,0,5,5,5,,,,,,,,,,,,,,,,,,,,,,,,,,,,,,,,,,,,,,0.011248600000726583,1139.4105127999999,1139.4437730000002,1139.5435048000002,1140.0441487,1140.1768445,1141.4433013,N,True,433.0067999999301,0.5117432000006374,1.144638100000975,401,797181,797814,798215,None,0,Correct,1141.4433013,1141.6432725000002,,,,,,,,,,,,,,,,,,,,,,,,,,,,,,,,,,,,,19,20,F,Y,2022-11-10_12h03.02.739,Prime-Probe,2022.2.4,59.95387149126976,
Test,Visual_Stimuli/D_Left.png,Visual_Stimuli/T_Right.png,g,Incongruent,Congruent,0,1,1,0,7,,,,,,,,,,,,,,,,,0,6,6,6,,,,,,,,,,,,,,,,,,,,,,,,,,,,,,,,,,,,,,0.010868900001241855,1142.1101687000003,1142.1433872999999,1142.2431223,1142.7439987999999,1142.8764457999998,1144.1429616000003,G,True,349.30060000033336,0.5113180000012107,1.1448649000008118,323,799879,800513,800836,None,0,Correct,1144.1429616000003,1144.3429485,,,,,,,,,,,,,,,,,,,,,,,,,,,,,,,,,,,,,19,20,F,Y,2022-11-10_12h03.02.739,Prime-Probe,2022.2.4,59.95387149126976,
Test,Visual_Stimuli/D_Down.png,Visual_Stimuli/T_Down.png,n,Congruent,Incongruent,4,2,4,2,10,,,,,,,,,,,,,,,,,0,7,7,7,,,,,,,,,,,,,,,,,,,,,,,,,,,,,,,,,,,,,,0.010546000001340872,1144.8098724,1144.8430101000001,1144.9428694,1145.4431389,1145.5763046999998,1146.8426686999999,N,True,299.590900000112,0.5109428000014304,1.1440967000012279,276,802581,803215,803491,None,0,Correct,1146.8426686999999,1147.0425943000002,,,,,,,,,,,,,,,,,,,,,,,,,,,,,,,,,,,,,19,20,F,Y,2022-11-10_12h03.02.739,Prime-Probe,2022.2.4,59.95387149126976,
