RunType,Distractor,Target,corrAns,CurrTrialType,PrevTrialType,Pract1.thisRepN,Pract1.thisTrialN,Pract1.thisN,Pract1.thisIndex,Pract2.thisRepN,Pract2.thisTrialN,Pract2.thisN,Pract2.thisIndex,Trials_1.thisRepN,Trials_1.thisTrialN,Trials_1.thisN,Trials_1.thisIndex,Trials_2.thisRepN,Trials_2.thisTrialN,Trials_2.thisN,Trials_2.thisIndex,Trials_3.thisRepN,Trials_3.thisTrialN,Trials_3.thisN,Trials_3.thisIndex,Trials_4.thisRepN,Trials_4.thisTrialN,Trials_4.thisN,Trials_4.thisIndex,Trials_5.thisRepN,Trials_5.thisTrialN,Trials_5.thisN,Trials_5.thisIndex,Trials_6.thisRepN,Trials_6.thisTrialN,Trials_6.thisN,Trials_6.thisIndex,Trials_7.thisRepN,Trials_7.thisTrialN,Trials_7.thisN,Trials_7.thisIndex,Trials_8.thisRepN,Trials_8.thisTrialN,Trials_8.thisN,Trials_8.thisIndex,Trials_9.thisRepN,Trials_9.thisTrialN,Trials_9.thisN,Trials_9.thisIndex,Consent1_Image.started,Consent1_resp.started,Consent1_resp.keys,Consent2_Image.started,Consent2_resp.started,Consent2_resp.keys,Consent3_Image.started,Consent3_resp.started,Consent3_resp.keys,Consent3_resp.rt,Placement_Image.started,Placement_resp.started,Placement_resp.keys,Instructions1_resp.started,Instructions1_image.started,Instructions1_resp.keys,Instructions2_resp.started,Instructions2_Image.started,Instructions2_resp.keys,Reminder1_Image.started,key_resp_3.started,key_resp_3.keys,key_resp_2.started,Instructions4_Txt.started,key_resp_2.keys,Interval_Text.started,Interval_Blank.started,Interval_Text.stopped,Interval_Blank.stopped,ISI_2.started,Distract.started,key_resp.started,Distract.stopped,Targ.started,Targ.stopped,key_resp.stopped,key_resp.keys,key_resp.corr,Response Key,Key Correct,PsychoPy Response Time (ms),Distractor_Onset_PsychoPy,Target_Onset_PsychoPy,Arduino Response Time (ms),Distractor_Onset_Arduino (ms),Target_Onset_Arduino (ms),Arduino Key Press Time (ms),Feedback,Message.started,Message.stopped,SecondPractice_Txt.started,SecondPractice_resp.started,SecondPractice_resp.keys,Reminder2_Image.started,Reminder2_resp.started,Reminder2_resp.keys,GoodJob_1.started,Ready_1.started,Eight_More.started,Ready_2.started,Seven_More.started,Ready_3.started,Six_More.started,Ready_4.started,Five_More.started,Ready_5.started,Four_More.started,Ready_6.started,Three_More.started,Ready_7.started,Two_More.started,Ready_8.started,One_More.started,Ready_9.started,Completion_Txt.started,Completion_resp.started,Completion_resp.keys,End_Response.started,Debrief1_Txt.started,End_Response.keys,Debrief2_Txt.started,Debrief2_resp.started,Debrief2_resp.keys,Debrief3_Txt.started,Debrief3_resp.started,Debrief3_resp.keys,participant,How old are you (in years)?,Are you male or female (M or F)?,Do you have normal vision and hearing (Y or N)?,date,expName,psychopyVersion,frameRate,
,,,,,,,,,,,,,,,,,,,,,,,,,,,,,,,,,,,,,,,,,,,,,,,,,,45.40220529999999,45.40220529999999,None,,,,,,,,,,,,,,,,,,,,,,,,,,,,,,,,,,,,,,,,,,,,,,,,,,,,,,,,,,,,,,,,,,,,,,,,,,,,,,,,,,,,90000,,,,2022-09-14_09h48.37.147,Prime-Probe,2022.2.4,60.02523460865312,
,,,,,,,,,,,,,,,,,,,,,,,,,,,,,,,,,,,,,,,,,,,,,,,,,,,,,49.89585820000002,49.89585820000002,None,,,,,,,,,,,,,,,,,,,,,,,,,,,,,,,,,,,,,,,,,,,,,,,,,,,,,,,,,,,,,,,,,,,,,,,,,,,,,,,,,90000,,,,2022-09-14_09h48.37.147,Prime-Probe,2022.2.4,60.02523460865312,
,,,,,,,,,,,,,,,,,,,,,,,,,,,,,,,,,,,,,,,,,,,,,,,,,,,,,,,,49.89585820000002,49.89585820000002,1,15.325731500000074,,,,,,,,,,,,,,,,,,,,,,,,,,,,,,,,,,,,,,,,,,,,,,,,,,,,,,,,,,,,,,,,,,,,,,,,,,,,,90000,,,,2022-09-14_09h48.37.147,Prime-Probe,2022.2.4,60.02523460865312,
,,,,,,,,,,,,,,,,,,,,,,,,,,,,,,,,,,,,,,,,,,,,,,,,,,,,,,,,,,,,65.34650829999998,65.34650829999998,None,,,,,,,,,,,,,,,,,,,,,,,,,,,,,,,,,,,,,,,,,,,,,,,,,,,,,,,,,,,,,,,,,,,,,,,,,,90000,,,,2022-09-14_09h48.37.147,Prime-Probe,2022.2.4,60.02523460865312,
,,,,,,,,,,,,,,,,,,,,,,,,,,,,,,,,,,,,,,,,,,,,,,,,,,,,,,,,,,,,,,,71.06347089999997,71.06347089999997,None,,,,,,,,,,,,,,,,,,,,,,,,,,,,,,,,,,,,,,,,,,,,,,,,,,,,,,,,,,,,,,,,,,,,,,,90000,,,,2022-09-14_09h48.37.147,Prime-Probe,2022.2.4,60.02523460865312,
,,,,,,,,,,,,,,,,,,,,,,,,,,,,,,,,,,,,,,,,,,,,,,,,,,,,,,,,,,,,,,,,,,71.06347089999997,71.06347089999997,None,,,,,,,,,,,,,,,,,,,,,,,,,,,,,,,,,,,,,,,,,,,,,,,,,,,,,,,,,,,,,,,,,,,,90000,,,,2022-09-14_09h48.37.147,Prime-Probe,2022.2.4,60.02523460865312,
,,,,,,,,,,,,,,,,,,,,,,,,,,,,,,,,,,,,,,,,,,,,,,,,,,,,,,,,,,,,,,,,,,,,,79.6111869,79.6111869,None,,,,,,,,,,,,,,,,,,,,,,,,,,,,,,,,,,,,,,,,,,,,,,,,,,,,,,,,,,,,,,,,,90000,,,,2022-09-14_09h48.37.147,Prime-Probe,2022.2.4,60.02523460865312,
,,,,,,,,,,,,,,,,,,,,,,,,,,,,,,,,,,,,,,,,,,,,,,,,,,,,,,,,,,,,,,,,,,,,,,,,88.22943050000003,88.22943050000003,None,,,,,,,,,,,,,,,,,,,,,,,,,,,,,,,,,,,,,,,,,,,,,,,,,,,,,,,,,,,,,,90000,,,,2022-09-14_09h48.37.147,Prime-Probe,2022.2.4,60.02523460865312,
Practice,Visual_Stimuli/D_Right.png,Visual_Stimuli/T_Right.png,g,Congruent,None,0,0,0,0,,,,,,,,,,,,,,,,,,,,,,,,,,,,,,,,,,,,,,,,,,,,,,,,,,,,,,,,,,,,,,,,,,88.22943050000003,90.02786760000004,90.04441750000001,90.22778949999997,0.005632699999978286,90.69471840000006,90.72782919999997,90.82761770000002,91.62792860000002,91.76085490000003,93.22736980000002,None,0,G,True,766.2992000000486,0.5059632999999621,1.4389896000000135,731,52991,53926,54657,Correct,93.22736980000002,93.42746980000004,,,,,,,,,,,,,,,,,,,,,,,,,,,,,,,,,,,,,90000,,,,2022-09-14_09h48.37.147,Prime-Probe,2022.2.4,60.02523460865312,
Practice,Visual_Stimuli/D_Down.png,Visual_Stimuli/T_Down.png,n,Congruent,Congruent,0,1,1,1,,,,,,,,,,,,,,,,,,,,,,,,,,,,,,,,,,,,,,,,,,,,,,,,,,,,,,,,,,,,,,,,,,,,,,0.005329899999992449,93.8944487,93.92772220000006,94.02746400000001,94.82778250000001,94.96077960000002,96.42757219999999,None,0,N,True,966.4558000000625,0.5057948999999553,1.4386969999999337,932,56191,57124,58056,TooSlow,96.42757219999999,96.62709619999998,,,,,,,,,,,,,,,,,,,,,,,,,,,,,,,,,,,,,90000,,,,2022-09-14_09h48.37.147,Prime-Probe,2022.2.4,60.02523460865312,
Practice,Visual_Stimuli/D_Left.png,Visual_Stimuli/T_Left.png,f,Congruent,Congruent,0,2,2,2,,,,,,,,,,,,,,,,,,,,,,,,,,,,,,,,,,,,,,,,,,,,,,,,,,,,,,,,,,,,,,,,,,,,,,0.004912499999932152,97.09399210000004,97.12725790000002,97.22706189999997,98.02723419999995,98.16039369999999,99.62674709999999,None,0,F,True,382.9279999999926,0.5054401999999527,1.438393499999961,362,59392,60324,60686,Correct,99.62674709999999,99.8265285,,,,,,,,,,,,,,,,,,,,,,,,,,,,,,,,,,,,,90000,,,,2022-09-14_09h48.37.147,Prime-Probe,2022.2.4,60.02523460865312,
Practice,Visual_Stimuli/N_Vert.png,Visual_Stimuli/T_Down.png,n,Neutral,Congruent,0,3,3,3,,,,,,,,,,,,,,,,,,,,,,,,,,,,,,,,,,,,,,,,,,,,,,,,,,,,,,,,,,,,,,,,,,,,,,0.004370499999936328,100.29355659999999,100.32719699999996,100.42646950000005,101.22696819999999,101.35970850000001,102.82623890000002,None,0,G,False,549.6615999999221,0.5054819999999154,1.4379111999999168,528,62590,63524,64052,Incorrect,102.82623890000002,103.02632170000004,,,,,,,,,,,,,,,,,,,,,,,,,,,,,,,,,,,,,90000,,,,2022-09-14_09h48.37.147,Prime-Probe,2022.2.4,60.02523460865312,
Practice,Visual_Stimuli/N_Horiz.png,Visual_Stimuli/T_Left.png,f,Neutral,Neutral,0,4,4,4,,,,,,,,,,,,,,,,,,,,,,,,,,,,,,,,,,,,,,,,,,,,,,,,,,,,,,,,,,,,,,,,,,,,,,0.004167699999811703,103.49342660000002,103.52646240000001,103.62618269999996,104.42651780000006,104.55944039999997,106.02598839999996,None,0,F,True,532.764899999961,0.5046447999998236,1.4377585999998246,497,65790,66723,67220,Correct,106.02598839999996,106.2261092,,,,,,,,,,,,,,,,,,,,,,,,,,,,,,,,,,,,,90000,,,,2022-09-14_09h48.37.147,Prime-Probe,2022.2.4,60.02523460865312,
Practice,Visual_Stimuli/D_Up.png,Visual_Stimuli/T_Up.png,j,Congruent,Neutral,0,5,5,5,,,,,,,,,,,,,,,,,,,,,,,,,,,,,,,,,,,,,,,,,,,,,,,,,,,,,,,,,,,,,,,,,,,,,,0.003924899999788067,106.69287050000003,106.72618839999996,106.82586079999999,107.62608839999996,107.75906799999996,109.22574229999998,None,0,J,True,816.6650000000573,0.5044137999998384,1.4369937999997546,787,68988,69923,70710,Correct,109.22574229999998,109.42567120000001,,,,,,,,,,,,,,,,,,,,,,,,,,,,,,,,,,,,,90000,,,,2022-09-14_09h48.37.147,Prime-Probe,2022.2.4,60.02523460865312,
Practice,Visual_Stimuli/D_Right.png,Visual_Stimuli/T_Left.png,f,Incongruent,Congruent,0,6,6,6,,,,,,,,,,,,,,,,,,,,,,,,,,,,,,,,,,,,,,,,,,,,,,,,,,,,,,,,,,,,,,,,,,,,,,0.0035188999997899373,109.89260460000003,109.92554459999997,110.02538760000004,110.82590630000004,110.95877210000003,112.42513489999999,None,0,F,True,616.44739999997,0.503670299999726,1.4368503999997984,590,72189,73121,73711,Correct,112.42513489999999,112.62518850000004,,,,,,,,,,,,,,,,,,,,,,,,,,,,,,,,,,,,,90000,,,,2022-09-14_09h48.37.147,Prime-Probe,2022.2.4,60.02523460865312,
Practice,Visual_Stimuli/D_Down.png,Visual_Stimuli/T_Up.png,j,Incongruent,Incongruent,0,7,7,7,,,,,,,,,,,,,,,,,,,,,,,,,,,,,,,,,,,,,,,,,,,,,,,,,,,,,,,,,,,,,,,,,,,,,,0.00305099999968661,113.09219129999997,113.125407,113.2251996,114.02542940000001,114.15833110000005,115.6247803,None,0,N,False,99.43529999998191,0.5036417999997411,1.4367344999997158,75,75389,76321,76396,Incorrect,115.6247803,115.82488590000003,,,,,,,,,,,,,,,,,,,,,,,,,,,,,,,,,,,,,90000,,,,2022-09-14_09h48.37.147,Prime-Probe,2022.2.4,60.02523460865312,
Practice,Visual_Stimuli/D_Left.png,Visual_Stimuli/T_Left.png,f,Congruent,Incongruent,0,8,8,8,,,,,,,,,,,,,,,,,,,,,,,,,,,,,,,,,,,,,,,,,,,,,,,,,,,,,,,,,,,,,,,,,,,,,,0.0027583999996068087,116.29192999999998,116.32510679999996,116.42480009999997,117.22608709999997,117.35792920000006,118.82438790000003,None,0,F,True,449.74390000004405,0.503358099999673,1.4361006999996562,413,78587,79522,79935,Correct,118.82438790000003,119.0243855,,,,,,,,,,,,,,,,,,,,,,,,,,,,,,,,,,,,,90000,,,,2022-09-14_09h48.37.147,Prime-Probe,2022.2.4,60.02523460865312,
Practice,Visual_Stimuli/N_Vert.png,Visual_Stimuli/T_Up.png,j,Neutral,Congruent,0,9,9,9,,,,,,,,,,,,,,,,,,,,,,,,,,,,,,,,,,,,,,,,,,,,,,,,,,,,,,,,,,,,,,,,,,,,,,0.002365699999586468,119.4914129,119.52467939999997,119.62443010000004,120.42489369999998,120.55758939999998,122.02421779999997,None,0,J,True,966.1938000000418,0.5028998999996475,1.4359615999995867,938,81787,82720,83658,TooSlow,122.02421779999997,122.2241967,,,,,,,,,,,,,,,,,,,,,,,,,,,,,,,,,,,,,90000,,,,2022-09-14_09h48.37.147,Prime-Probe,2022.2.4,60.02523460865312,
Practice,Visual_Stimuli/D_Left.png,Visual_Stimuli/T_Right.png,g,Incongruent,Neutral,0,10,10,10,,,,,,,,,,,,,,,,,,,,,,,,,,,,,,,,,,,,,,,,,,,,,,,,,,,,,,,,,,,,,,,,,,,,,,0.0020086999995783117,122.69107610000003,122.72425970000006,122.82406939999998,123.62417470000003,123.757205,125.22369060000005,None,0,G,True,666.2998000000471,0.5024352999995472,1.4353481999995665,634,84986,85920,86554,Correct,125.22369060000005,125.42356689999997,,,,,,,,,,,,,,,,,,,,,,,,,,,,,,,,,,,,,90000,,,,2022-09-14_09h48.37.147,Prime-Probe,2022.2.4,60.02523460865312,
Practice,Visual_Stimuli/D_Down.png,Visual_Stimuli/T_Up.png,j,Incongruent,Incongruent,0,11,11,11,,,,,,,,,,,,,,,,,,,,,,,,,,,,,,,,,,,,,,,,,,,,,,,,,,,,,,,,,,,,,,,,,,,,,,0.0014131999995470323,125.89051029999996,125.92389330000003,126.02361389999999,126.82367190000002,126.95674940000004,128.42319150000003,None,0,J,True,632.9815999999937,0.5021037999995315,1.4348370999995268,597,88186,89119,89716,Correct,128.42319150000003,128.62314920000006,,,,,,,,,,,,,,,,,,,,,,,,,,,,,,,,,,,,,90000,,,,2022-09-14_09h48.37.147,Prime-Probe,2022.2.4,60.02523460865312,
Practice,Visual_Stimuli/N_Horiz.png,Visual_Stimuli/T_Right.png,g,Neutral,Incongruent,0,12,12,12,,,,,,,,,,,,,,,,,,,,,,,,,,,,,,,,,,,,,,,,,,,,,,,,,,,,,,,,,,,,,,,,,,,,,,0.0010010999994847225,129.09022289999996,129.12334950000002,129.22313710000003,130.02331419999996,130.15655830000003,131.62281400000006,None,0,G,True,699.7127000000773,0.5015152999994825,1.4344422999994322,676,91386,92319,92995,Correct,131.62281400000006,131.8228646,,,,,,,,,,,,,,,,,,,,,,,,,,,,,,,,,,,,,90000,,,,2022-09-14_09h48.37.147,Prime-Probe,2022.2.4,60.02523460865312,
Practice,Visual_Stimuli/D_Down.png,Visual_Stimuli/T_Up.png,j,Incongruent,Neutral,0,13,13,13,,,,,,,,,,,,,,,,,,,,,,,,,,,,,,,,,,,,,,,,,,,,,,,,,,,,,,,,,,,,,,,,,,,,,,0.0007300999993731239,132.2897673,132.32325990000004,132.4228541,133.22336919999998,133.35601110000005,134.82267739999998,None,0,J,True,666.5117000000009,0.5014719999994668,1.4340183999994451,634,94587,95519,96153,Correct,134.82267739999998,135.02247799999998,,,,,,,,,,,,,,,,,,,,,,,,,,,,,,,,,,,,,90000,,,,2022-09-14_09h48.37.147,Prime-Probe,2022.2.4,60.02523460865312,
Practice,Visual_Stimuli/D_Left.png,Visual_Stimuli/T_Left.png,f,Congruent,Incongruent,0,14,14,14,,,,,,,,,,,,,,,,,,,,,,,,,,,,,,,,,,,,,,,,,,,,,,,,,,,,,,,,,,,,,,,,,,,,,,0.0003388999994058395,135.4894964,135.52267080000001,135.62238760000002,136.42297099999996,136.55561060000002,138.02215179999996,None,0,F,True,466.3362999999663,0.5008213999993814,1.4338784999994232,445,97785,98717,99162,Correct,138.02215179999996,138.222217,,,,,,,,,,,,,,,,,,,,,,,,,,,,,,,,,,,,,90000,,,,2022-09-14_09h48.37.147,Prime-Probe,2022.2.4,60.02523460865312,
Practice,Visual_Stimuli/D_Up.png,Visual_Stimuli/T_Up.png,j,Congruent,Congruent,0,15,15,15,,,,,,,,,,,,,,,,,,,,,,,,,,,,,,,,,,,,,,,,,,,,,,,,,,,,,,,,,,,,,,,,,,,,,,2.939999933460058e-05,138.6890389,138.72225960000003,138.82217119999996,139.62231040000006,139.75542199999995,141.22179960000005,None,0,J,True,899.6203000000378,0.5004446999993206,1.433385199999293,871,100983,101918,102789,Correct,141.22179960000005,141.4217784,,,,,,,,,,,,,,,,,,,,,,,,,,,,,,,,,,,,,90000,,,,2022-09-14_09h48.37.147,Prime-Probe,2022.2.4,60.02523460865312,
Practice,Visual_Stimuli/D_Right.png,Visual_Stimuli/T_Left.png,f,Incongruent,Congruent,0,16,16,16,,,,,,,,,,,,,,,,,,,,,,,,,,,,,,,,,,,,,,,,,,,,,,,,,,,,,,,,,,,,,,,,,,,,,,-0.00040770000066459033,141.88883569999996,141.92205179999996,142.02174850000006,142.8220493,142.95480329999998,144.42232420000005,None,0,G,False,-383.8844000000563,0.5002160999993066,1.4330212999992682,-412,104183,105118,104706,Distractor Response,144.42232420000005,144.62136410000005,,,,,,,,,,,,,,,,,,,,,,,,,,,,,,,,,,,,,90000,,,,2022-09-14_09h48.37.147,Prime-Probe,2022.2.4,60.02523460865312,
Practice,Visual_Stimuli/N_Vert.png,Visual_Stimuli/T_Down.png,n,Neutral,Incongruent,0,17,17,17,,,,,,,,,,,,,,,,,,,,,,,,,,,,,,,,,,,,,,,,,,,,,,,,,,,,,,,,,,,,,,,,,,,,,,-0.000770000000784421,145.08839869999997,145.1216448,145.22126630000002,146.02165000000002,146.1546909,147.62110189999999,None,0,N,True,633.0189000000246,0.5161452999992662,1.4492936999992025,602,107400,108334,108936,Correct,147.62110189999999,147.90986239999995,,,,,,,,,,,,,,,,,,,,,,,,,,,,,,,,,,,,,90000,,,,2022-09-14_09h48.37.147,Prime-Probe,2022.2.4,60.02523460865312,
,,,,,,,,,,,,,,,,,,,,,,,,,,,,,,,,,,,,,,,,,,,,,,,,,,,,,,,,,,,,,,,,,,,,,,,,,,,,,,,,,,,,,,,,,,,,,,,,,,,,147.90986239999995,147.90986239999995,None,,,,,,,,,,,,,,,,,,,,,,,,,,,,,,,,,,90000,,,,2022-09-14_09h48.37.147,Prime-Probe,2022.2.4,60.02523460865312,
,,,,,,,,,,,,,,,,,,,,,,,,,,,,,,,,,,,,,,,,,,,,,,,,,,,,,,,,,,,,,,,,,,,,,,,,,,,,,,,,,,,,,,,,,,,,,,,,,,,,,,,200.7702594,200.7702594,None,,,,,,,,,,,,,,,,,,,,,,,,,,,,,,,90000,,,,2022-09-14_09h48.37.147,Prime-Probe,2022.2.4,60.02523460865312,
Practice,Visual_Stimuli/D_Right.png,Visual_Stimuli/T_Left.png,f,Incongruent,Neutral,,,,,0,0,0,0,,,,,,,,,,,,,,,,,,,,,,,,,,,,,,,,,,,,,,,,,,,,,,,,,,,,,,,,,,,,,,200.7702594,202.58150379999995,202.58150379999995,202.78142839999998,0.005257499999970605,203.24843250000004,203.28176840000003,203.38138230000004,204.18170529999998,204.31483060000005,205.78121299999998,None,0,G,False,-301.2960999991492,0.5155856999999742,1.4481987000000345,-320,165541,166474,166154,Distractor Response,205.78121299999998,205.98115029999997,,,,,,,,,,,,,,,,,,,,,,,,,,,,,,,,,,,,,90000,,,,2022-09-14_09h48.37.147,Prime-Probe,2022.2.4,60.02523460865312,
Practice,Visual_Stimuli/N_Vert.png,Visual_Stimuli/T_Down.png,n,Neutral,Incongruent,,,,,0,1,1,1,,,,,,,,,,,,,,,,,,,,,,,,,,,,,,,,,,,,,,,,,,,,,,,,,,,,,,,,,,,,,,,,,,0.014729299999999057,206.44787499999995,206.48130290000006,206.58105609999996,207.38128070000005,207.51425800000004,208.98081330000002,None,0,N,True,533.0962000000454,0.5151134000000184,1.4478038999999399,500,168742,169674,170174,Correct,208.98081330000002,209.18071610000004,,,,,,,,,,,,,,,,,,,,,,,,,,,,,,,,,,,,,90000,,,,2022-09-14_09h48.37.147,Prime-Probe,2022.2.4,60.02523460865312,
Practice,Visual_Stimuli/D_Right.png,Visual_Stimuli/T_Right.png,g,Congruent,Neutral,,,,,0,2,2,2,,,,,,,,,,,,,,,,,,,,,,,,,,,,,,,,,,,,,,,,,,,,,,,,,,,,,,,,,,,,,,,,,,0.014146699999969314,209.64761210000006,209.6814839,209.78048869999998,210.58082920000004,210.7140806,,None,0,G,True,516.4647999999943,0.5152725999998893,1.4475073999999495,494,171940,172872,173366,Correct,212.1972561,,,,,,,,,,,,,,,,,,,,,,,,,,,,,,,,,,,,,,90000,,,,2022-09-14_09h48.37.147,Prime-Probe,2022.2.4,60.02523460865312,
Practice,Visual_Stimuli/D_Up.png,Visual_Stimuli/T_Down.png,n,Incongruent,Congruent,,,,,0,3,3,3,,,,,,,,,,,,,,,,,,,,,,,,,,,,,,,,,,,,,,,,,,,,,,,,,,,,,,,,,,,,,,,,,,0.014592099999845232,212.8474738,212.8805109,212.98021040000003,213.78045610000004,213.91341109999996,215.3798878,None,0,N,True,766.4405000000443,0.5142728999999235,1.4471253999998908,737,175140,176073,176810,Correct,215.3798878,215.5800332,,,,,,,,,,,,,,,,,,,,,,,,,,,,,,,,,,,,,90000,,,,2022-09-14_09h48.37.147,Prime-Probe,2022.2.4,60.02523460865312,
Practice,Visual_Stimuli/D_Left.png,Visual_Stimuli/T_Right.png,g,Incongruent,Incongruent,,,,,0,4,4,4,,,,,,,,,,,,,,,,,,,,,,,,,,,,,,,,,,,,,,,,,,,,,,,,,,,,,,,,,,,,,,,,,,0.013525799999797528,216.04692409999996,216.08001339999998,216.17986659999997,216.98013520000006,217.1129403,218.57971340000006,None,0,G,True,399.7259000000213,0.5138379999998506,1.4467677999998614,377,178338,179273,179650,Correct,218.57971340000006,218.779583,,,,,,,,,,,,,,,,,,,,,,,,,,,,,,,,,,,,,90000,,,,2022-09-14_09h48.37.147,Prime-Probe,2022.2.4,60.02523460865312,
Practice,Visual_Stimuli/D_Up.png,Visual_Stimuli/T_Up.png,j,Congruent,Incongruent,,,,,0,5,5,5,,,,,,,,,,,,,,,,,,,,,,,,,,,,,,,,,,,,,,,,,,,,,,,,,,,,,,,,,,,,,,,,,,0.01304889999983061,219.24649999999997,219.27977069999997,219.3796132,220.17975209999997,220.31306270000005,221.7798457,None,0,J,True,499.4715999999926,0.5135860999997703,1.446582999999805,469,181539,182471,182940,Correct,221.7798457,221.97934080000005,,,,,,,,,,,,,,,,,,,,,,,,,,,,,,,,,,,,,90000,,,,2022-09-14_09h48.37.147,Prime-Probe,2022.2.4,60.02523460865312,
Practice,Visual_Stimuli/N_Horiz.png,Visual_Stimuli/T_Left.png,f,Neutral,Congruent,,,,,0,6,6,6,,,,,,,,,,,,,,,,,,,,,,,,,,,,,,,,,,,,,,,,,,,,,,,,,,,,,,,,,,,,,,,,,,0.012841199999797936,222.44601390000003,222.47941100000003,222.5791977,223.3794226,223.51236000000006,224.97892960000001,None,0,J,False,-1449.406900000099,0.5132240999997748,1.4461281999997482,-2732,184738,185672,182940,Distractor Response,224.97892960000001,225.17884130000004,,,,,,,,,,,,,,,,,,,,,,,,,,,,,,,,,,,,,90000,,,,2022-09-14_09h48.37.147,Prime-Probe,2022.2.4,60.02523460865312,
Practice,Visual_Stimuli/D_Down.png,Visual_Stimuli/T_Down.png,n,Congruent,Neutral,,,,,0,7,7,7,,,,,,,,,,,,,,,,,,,,,,,,,,,,,,,,,,,,,,,,,,,,,,,,,,,,,,,,,,,,,,,,,,0.012275699999690914,225.64583159999995,225.67918959999997,225.77881939999997,226.5789856,226.71202259999995,228.1785655,None,0,J,False,-1449.2787000000362,0.5130234999996901,1.4456810999996605,-5932,187937,188872,182940,Distractor Response,228.1785655,228.37857510000003,,,,,,,,,,,,,,,,,,,,,,,,,,,,,,,,,,,,,90000,,,,2022-09-14_09h48.37.147,Prime-Probe,2022.2.4,60.02523460865312,
Practice,Visual_Stimuli/N_Horiz.png,Visual_Stimuli/T_Right.png,g,Neutral,Congruent,,,,,0,8,8,8,,,,,,,,,,,,,,,,,,,,,,,,,,,,,,,,,,,,,,,,,,,,,,,,,,,,,,,,,,,,,,,,,,0.0120390999996971,228.84546469999998,228.8786745,228.9783258,229.7787293,229.91156739999997,231.3781318,None,0,G,True,732.9718999999386,0.5124933999996983,1.4454076999996914,697,191138,192071,192768,Correct,231.3781318,231.5780578,,,,,,,,,,,,,,,,,,,,,,,,,,,,,,,,,,,,,90000,,,,2022-09-14_09h48.37.147,Prime-Probe,2022.2.4,60.02523460865312,
Practice,Visual_Stimuli/N_Vert.png,Visual_Stimuli/T_Up.png,j,Neutral,Neutral,,,,,0,9,9,9,,,,,,,,,,,,,,,,,,,,,,,,,,,,,,,,,,,,,,,,,,,,,,,,,,,,,,,,,,,,,,,,,,0.01153949999957149,232.04564119999998,232.07824979999998,232.17804560000002,232.97840859999997,233.1114159,234.57791069999996,None,0,J,True,483.1448999999566,0.5121209999996381,1.4449236999996629,457,194336,195271,195728,Correct,234.57791069999996,234.77775910000003,,,,,,,,,,,,,,,,,,,,,,,,,,,,,,,,,,,,,90000,,,,2022-09-14_09h48.37.147,Prime-Probe,2022.2.4,60.02523460865312,
Practice,Visual_Stimuli/N_Horiz.png,Visual_Stimuli/T_Right.png,g,Neutral,Neutral,,,,,0,10,10,10,,,,,,,,,,,,,,,,,,,,,,,,,,,,,,,,,,,,,,,,,,,,,,,,,,,,,,,,,,,,,,,,,,0.011211999999545696,235.24469180000006,235.27799070000003,235.3776739,236.1777909,236.31074150000006,237.77755120000006,None,0,G,True,532.8405999999859,0.5117896999995537,1.4448187999995525,510,197537,198469,198979,Correct,237.77755120000006,237.9772011,,,,,,,,,,,,,,,,,,,,,,,,,,,,,,,,,,,,,90000,,,,2022-09-14_09h48.37.147,Prime-Probe,2022.2.4,60.02523460865312,
Practice,Visual_Stimuli/D_Up.png,Visual_Stimuli/T_Down.png,n,Incongruent,Neutral,,,,,0,11,11,11,,,,,,,,,,,,,,,,,,,,,,,,,,,,,,,,,,,,,,,,,,,,,,,,,,,,,,,,,,,,,,,,,,0.010649199999534176,238.44445529999996,238.47750110000004,238.57722179999996,239.37765720000004,239.5106958,240.97712030000002,None,0,N,True,466.1224000000175,0.5112470999995367,1.4444131999995307,439,200735,201670,202109,Correct,240.97712030000002,241.17687839999996,,,,,,,,,,,,,,,,,,,,,,,,,,,,,,,,,,,,,90000,,,,2022-09-14_09h48.37.147,Prime-Probe,2022.2.4,60.02523460865312,
Practice,Visual_Stimuli/N_Horiz.png,Visual_Stimuli/T_Left.png,f,Neutral,Incongruent,,,,,0,12,12,12,,,,,,,,,,,,,,,,,,,,,,,,,,,,,,,,,,,,,,,,,,,,,,,,,,,,,,,,,,,,,,,,,,0.010301799999524519,241.64400390000003,241.677138,241.7769819,242.57735079999998,242.71020940000005,244.17659590000005,None,0,F,True,416.21299999997063,0.5109161999994285,1.443872099999453,389,203936,204868,205257,Correct,244.17659590000005,244.37660230000006,,,,,,,,,,,,,,,,,,,,,,,,,,,,,,,,,,,,,90000,,,,2022-09-14_09h48.37.147,Prime-Probe,2022.2.4,60.02523460865312,
Practice,Visual_Stimuli/N_Vert.png,Visual_Stimuli/T_Up.png,j,Neutral,Neutral,,,,,0,13,13,13,,,,,,,,,,,,,,,,,,,,,,,,,,,,,,,,,,,,,,,,,,,,,,,,,,,,,,,,,,,,,,,,,,0.010063499999432679,244.84354459999997,244.87683289999995,244.97646369999995,245.77670279999995,245.90990380000005,247.37632229999997,None,0,J,True,449.83909999996285,0.5106086999994659,1.4434634999994387,425,207134,208068,208493,Correct,247.37632229999997,247.57617760000005,,,,,,,,,,,,,,,,,,,,,,,,,,,,,,,,,,,,,90000,,,,2022-09-14_09h48.37.147,Prime-Probe,2022.2.4,60.02523460865312,
Practice,Visual_Stimuli/D_Right.png,Visual_Stimuli/T_Right.png,g,Congruent,Neutral,,,,,0,14,14,14,,,,,,,,,,,,,,,,,,,,,,,,,,,,,,,,,,,,,,,,,,,,,,,,,,,,,,,,,,,,,,,,,,0.009608699999375858,248.04312330000005,248.07639110000002,248.17625039999996,248.97631049999995,249.10935849999998,250.5759044,None,0,G,True,716.4817999999968,0.5101889999994,1.4429837999994106,693,210334,211269,211962,Correct,250.5759044,250.77590529999998,,,,,,,,,,,,,,,,,,,,,,,,,,,,,,,,,,,,,90000,,,,2022-09-14_09h48.37.147,Prime-Probe,2022.2.4,60.02523460865312,
Practice,Visual_Stimuli/D_Up.png,Visual_Stimuli/T_Down.png,n,Incongruent,Congruent,,,,,0,15,15,15,,,,,,,,,,,,,,,,,,,,,,,,,,,,,,,,,,,,,,,,,,,,,,,,,,,,,,,,,,,,,,,,,,0.009350899999390094,251.2428698,251.2760138,251.375857,252.17607269999996,252.30911230000004,253.77566360000003,None,0,N,True,499.80859999993754,0.5097906999993711,1.4425762999993594,477,213535,214467,214944,Correct,253.77566360000003,253.97553319999997,,,,,,,,,,,,,,,,,,,,,,,,,,,,,,,,,,,,,90000,,,,2022-09-14_09h48.37.147,Prime-Probe,2022.2.4,60.02523460865312,
Practice,Visual_Stimuli/D_Left.png,Visual_Stimuli/T_Right.png,g,Incongruent,Incongruent,,,,,0,16,16,16,,,,,,,,,,,,,,,,,,,,,,,,,,,,,,,,,,,,,,,,,,,,,,,,,,,,,,,,,,,,,,,,,,0.00895339999931366,254.44235130000004,254.47560239999996,254.5754554,255.37563769999997,255.50867889999995,256.97513979999997,None,0,G,True,433.15020000000004,0.5094647999992503,1.4422850999992534,397,216733,217667,218064,Correct,256.97513979999997,257.27530609999997,,,,,,,,,,,,,,,,,,,,,,,,,,,,,,,,,,,,,90000,,,,2022-09-14_09h48.37.147,Prime-Probe,2022.2.4,60.02523460865312,
,,,,,,,,,,,,,,,,,,,,,,,,,,,,,,,,,,,,,,,,,,,,,,,,,,,,,,,,,,,,,,,,,,,,,,,,,,,,,,,,,,,,,,,,,,,,,,,,,,,,,,,325.77318230000003,325.77318230000003,None,257.27530609999997,257.27530609999997,,,,,,,,,,,,,,,,,,,,,,,,,,,,,90000,,,,2022-09-14_09h48.37.147,Prime-Probe,2022.2.4,60.02523460865312,
Test,Visual_Stimuli/D_Left.png,Visual_Stimuli/T_Left.png,f,Congruent,None,,,,,,,,,0,0,0,0,,,,,,,,,,,,,,,,,,,,,,,,,,,,,,,,,,,,,,,,,,,,,,,,,,,,,,,,,,325.77318230000003,327.5836928,327.5836928,327.7838683,0.0058172999999897,328.2505169,328.28374240000005,328.38362140000004,329.18378140000004,329.31686890000003,330.7834004,None,0,F,True,382.8866000000062,0.5147890000000643,1.4479112000000214,353,290539,291473,291826,Correct,330.7834004,330.98323860000005,,,,,,,,,,,,,,,,,,,,,,,,,,,,,,,,,,,,,90000,,,,2022-09-14_09h48.37.147,Prime-Probe,2022.2.4,60.02523460865312,
Test,Visual_Stimuli/D_Up.png,Visual_Stimuli/T_Down.png,n,Incongruent,Congruent,,,,,,,,,0,1,1,1,,,,,,,,,,,,,,,,,,,,,,,,,,,,,,,,,,,,,,,,,,,,,,,,,,,,,,,,,,,,,,0.013923099999942679,331.45018630000004,331.4834029,331.58334479999996,332.3834448,332.51636829999995,333.98303580000004,None,0,N,True,432.715900000062,0.5144808000000012,1.4476936999999452,407,293739,294671,295078,Correct,333.98303580000004,334.18286910000006,,,,,,,,,,,,,,,,,,,,,,,,,,,,,,,,,,,,,90000,,,,2022-09-14_09h48.37.147,Prime-Probe,2022.2.4,60.02523460865312,
Test,Visual_Stimuli/N_Horiz.png,Visual_Stimuli/T_Left.png,f,Neutral,Incongruent,,,,,,,,,0,2,2,2,,,,,,,,,,,,,,,,,,,,,,,,,,,,,,,,,,,,,,,,,,,,,,,,,,,,,,,,,,,,,,0.013630999999918458,334.6498296,334.6830639,334.78296179999995,335.583224,335.7160097,337.1828518,None,0,F,True,382.8984000000446,0.5141000999999505,1.4470292999999401,356,296939,297872,298228,Correct,337.1828518,337.3825987,,,,,,,,,,,,,,,,,,,,,,,,,,,,,,,,,,,,,90000,,,,2022-09-14_09h48.37.147,Prime-Probe,2022.2.4,60.02523460865312,
Test,Visual_Stimuli/D_Up.png,Visual_Stimuli/T_Down.png,n,Incongruent,Neutral,,,,,,,,,0,3,3,3,,,,,,,,,,,,,,,,,,,,,,,,,,,,,,,,,,,,,,,,,,,,,,,,,,,,,,,,,,,,,,0.013311499999872467,337.8495154,337.88276410000003,337.9824556,338.78251680000005,338.9157768,340.3822877,None,0,N,True,333.0587000000378,0.5138072999999395,1.4466465999998945,312,300137,301070,301382,Correct,340.3822877,340.58214110000006,,,,,,,,,,,,,,,,,,,,,,,,,,,,,,,,,,,,,90000,,,,2022-09-14_09h48.37.147,Prime-Probe,2022.2.4,60.02523460865312,
Test,Visual_Stimuli/D_Right.png,Visual_Stimuli/T_Left.png,f,Incongruent,Incongruent,,,,,,,,,0,4,4,4,,,,,,,,,,,,,,,,,,,,,,,,,,,,,,,,,,,,,,,,,,,,,,,,,,,,,,,,,,,,,,0.012905299999829367,341.0490784,341.0823706,341.1821436,341.9822928,342.11547329999996,343.5817939,None,0,F,True,549.5706000000382,0.5134687999998278,1.4464309999998477,529,303338,304270,304799,Correct,343.5817939,343.7818344,,,,,,,,,,,,,,,,,,,,,,,,,,,,,,,,,,,,,90000,,,,2022-09-14_09h48.37.147,Prime-Probe,2022.2.4,60.02523460865312,
Test,Visual_Stimuli/D_Down.png,Visual_Stimuli/T_Down.png,n,Congruent,Incongruent,,,,,,,,,0,5,5,5,,,,,,,,,,,,,,,,,,,,,,,,,,,,,,,,,,,,,,,,,,,,,,,,,,,,,,,,,,,,,,0.012513699999772143,344.24863330000005,344.28203210000004,344.3818017,345.1820463,345.31503139999995,346.78140940000003,None,0,N,True,416.3359000000355,0.5133083999998007,1.4460817999997744,385,306538,307470,307855,Correct,346.78140940000003,346.98153620000005,,,,,,,,,,,,,,,,,,,,,,,,,,,,,,,,,,,,,90000,,,,2022-09-14_09h48.37.147,Prime-Probe,2022.2.4,60.02523460865312,
Test,Visual_Stimuli/N_Horiz.png,Visual_Stimuli/T_Right.png,g,Neutral,Congruent,,,,,,,,,0,6,6,6,,,,,,,,,,,,,,,,,,,,,,,,,,,,,,,,,,,,,,,,,,,,,,,,,,,,,,,,,,,,,,0.012252599999783342,347.44838219999997,347.4816032,347.5814543,348.3817728,348.5146096,349.9812555,None,0,G,True,516.2032999999155,0.5126672999997481,1.4457093999998278,494,309736,310669,311163,Correct,349.9812555,350.1810798,,,,,,,,,,,,,,,,,,,,,,,,,,,,,,,,,,,,,90000,,,,2022-09-14_09h48.37.147,Prime-Probe,2022.2.4,60.02523460865312,
Test,Visual_Stimuli/N_Vert.png,Visual_Stimuli/T_Up.png,j,Neutral,Neutral,,,,,,,,,0,7,7,7,,,,,,,,,,,,,,,,,,,,,,,,,,,,,,,,,,,,,,,,,,,,,,,,,,,,,,,,,,,,,,0.01185759999975744,350.6486116,350.6813797,350.78137430000004,351.58135919999995,351.7143363,353.18078990000004,None,0,J,True,516.5370999999368,0.512467199999719,1.445243999999775,487,312937,313869,314356,Correct,353.18078990000004,353.3806862,,,,,,,,,,,,,,,,,,,,,,,,,,,,,,,,,,,,,90000,,,,2022-09-14_09h48.37.147,Prime-Probe,2022.2.4,60.02523460865312,
Test,Visual_Stimuli/D_Left.png,Visual_Stimuli/T_Left.png,f,Congruent,Neutral,,,,,,,,,0,8,8,8,,,,,,,,,,,,,,,,,,,,,,,,,,,,,,,,,,,,,,,,,,,,,,,,,,,,,,,,,,,,,,0.011355499999694985,353.84761530000003,353.8808814,353.98045490000004,354.78092390000006,354.9141466,356.38044190000005,None,0,F,True,382.8808000000663,0.5119177999996509,1.4449647999996387,355,316135,317069,317424,Correct,356.38044190000005,356.58025399999997,,,,,,,,,,,,,,,,,,,,,,,,,,,,,,,,,,,,,90000,,,,2022-09-14_09h48.37.147,Prime-Probe,2022.2.4,60.02523460865312,
Test,Visual_Stimuli/D_Down.png,Visual_Stimuli/T_Up.png,j,Incongruent,Congruent,,,,,,,,,0,9,9,9,,,,,,,,,,,,,,,,,,,,,,,,,,,,,,,,,,,,,,,,,,,,,,,,,,,,,,,,,,,,,,0.010924699999691256,357.04750090000005,357.0804773,357.180378,357.98061359999997,358.1135455,359.5799671,None,0,J,True,516.4764999999534,0.5114451999996845,1.4443952999996554,483,319335,320268,320751,Correct,359.5799671,359.77989,,,,,,,,,,,,,,,,,,,,,,,,,,,,,,,,,,,,,90000,,,,2022-09-14_09h48.37.147,Prime-Probe,2022.2.4,60.02523460865312,
Test,Visual_Stimuli/D_Left.png,Visual_Stimuli/T_Right.png,g,Incongruent,Incongruent,,,,,,,,,0,10,10,10,,,,,,,,,,,,,,,,,,,,,,,,,,,,,,,,,,,,,,,,,,,,,,,,,,,,,,,,,,,,,,0.010693699999592354,360.2469708,360.28020920000006,360.37991320000003,361.18018329999995,361.3132226,362.77962979999995,None,0,G,True,549.4745999999395,0.5113609999996243,1.4442222999996375,523,322534,323468,323991,Correct,362.77962979999995,362.97951090000004,,,,,,,,,,,,,,,,,,,,,,,,,,,,,,,,,,,,,90000,,,,2022-09-14_09h48.37.147,Prime-Probe,2022.2.4,60.02523460865312,
Test,Visual_Stimuli/D_Up.png,Visual_Stimuli/T_Down.png,n,Incongruent,Incongruent,,,,,,,,,0,11,11,11,,,,,,,,,,,,,,,,,,,,,,,,,,,,,,,,,,,,,,,,,,,,,,,,,,,,,,,,,,,,,,0.01024999999958709,363.44668920000004,363.479869,363.57946549999997,364.37974240000005,364.51279569999997,365.9795467,None,0,N,True,333.1352999999808,0.5109408999995821,1.4437277999995786,309,325734,326668,326977,Correct,365.9795467,366.17925149999996,,,,,,,,,,,,,,,,,,,,,,,,,,,,,,,,,,,,,90000,,,,2022-09-14_09h48.37.147,Prime-Probe,2022.2.4,60.02523460865312,
Test,Visual_Stimuli/D_Right.png,Visual_Stimuli/T_Right.png,g,Congruent,Incongruent,,,,,,,,,0,12,12,12,,,,,,,,,,,,,,,,,,,,,,,,,,,,,,,,,,,,,,,,,,,,,,,,,,,,,,,,,,,,,,0.009997799999496237,366.6460875,366.6793497,366.77934600000003,367.5794885,367.7123494,369.17891469999995,None,0,G,True,516.281499999991,0.5104296999994631,1.443323499999451,484,328934,329867,330351,Correct,369.17891469999995,369.3787615,,,,,,,,,,,,,,,,,,,,,,,,,,,,,,,,,,,,,90000,,,,2022-09-14_09h48.37.147,Prime-Probe,2022.2.4,60.02523460865312,
Test,Visual_Stimuli/D_Down.png,Visual_Stimuli/T_Down.png,n,Congruent,Congruent,,,,,,,,,0,13,13,13,,,,,,,,,,,,,,,,,,,,,,,,,,,,,,,,,,,,,,,,,,,,,,,,,,,,,,,,,,,,,,0.009445199999504439,369.8457273,369.87902010000005,369.9789544,370.77904309999997,370.9119393,372.37871229999996,None,0,N,True,599.5967999999721,0.5100472999994281,1.4430364999994936,567,332132,333067,333634,Correct,372.37871229999996,372.57835380000006,,,,,,,,,,,,,,,,,,,,,,,,,,,,,,,,,,,,,90000,,,,2022-09-14_09h48.37.147,Prime-Probe,2022.2.4,60.02523460865312,
Test,Visual_Stimuli/D_Left.png,Visual_Stimuli/T_Right.png,g,Incongruent,Congruent,,,,,,,,,0,14,14,14,,,,,,,,,,,,,,,,,,,,,,,,,,,,,,,,,,,,,,,,,,,,,,,,,,,,,,,,,,,,,,0.009074199999417942,373.04541370000004,373.07858899999997,373.1787699,373.9785736,374.11188649999997,375.57801200000006,None,0,G,True,533.6905000000343,0.5095903999994107,1.4426486999993813,499,335332,336265,336764,Correct,375.57801200000006,375.7780249,,,,,,,,,,,,,,,,,,,,,,,,,,,,,,,,,,,,,90000,,,,2022-09-14_09h48.37.147,Prime-Probe,2022.2.4,60.02523460865312,
Test,Visual_Stimuli/D_Down.png,Visual_Stimuli/T_Up.png,j,Incongruent,Incongruent,,,,,,,,,0,15,15,15,,,,,,,,,,,,,,,,,,,,,,,,,,,,,,,,,,,,,,,,,,,,,,,,,,,,,,,,,,,,,,0.008742499999357278,376.24502759999996,376.2783565,376.37790730000006,377.1783709,377.31112729999995,378.7776715,None,0,J,True,399.7981999999638,0.5093474999993077,1.442199699999378,376,338533,339465,339841,Correct,378.7776715,378.9778781,,,,,,,,,,,,,,,,,,,,,,,,,,,,,,,,,,,,,90000,,,,2022-09-14_09h48.37.147,Prime-Probe,2022.2.4,60.02523460865312,
Test,Visual_Stimuli/D_Right.png,Visual_Stimuli/T_Right.png,g,Congruent,Incongruent,,,,,,,,,0,16,16,16,,,,,,,,,,,,,,,,,,,,,,,,,,,,,,,,,,,,,,,,,,,,,,,,,,,,,,,,,,,,,,0.00856509999937316,379.4447632,379.4778692,379.57768239999996,380.37792450000006,380.5108404,381.9773659,None,0,G,True,599.4617000000062,0.5089560999992955,1.442105499999343,573,341731,342666,343239,Correct,381.9773659,382.1773537,,,,,,,,,,,,,,,,,,,,,,,,,,,,,,,,,,,,,90000,,,,2022-09-14_09h48.37.147,Prime-Probe,2022.2.4,60.02523460865312,
Test,Visual_Stimuli/D_Down.png,Visual_Stimuli/T_Up.png,j,Incongruent,Congruent,,,,,,,,,0,17,17,17,,,,,,,,,,,,,,,,,,,,,,,,,,,,,,,,,,,,,,,,,,,,,,,,,,,,,,,,,,,,,,0.008022099999266175,382.64443040000003,382.67744159999995,382.77726400000006,383.57758750000005,383.7105781,385.17704360000005,None,0,J,True,366.4208000000144,0.508393099999239,1.4414621999992505,345,344931,345864,346209,Correct,385.17704360000005,385.37694799999997,,,,,,,,,,,,,,,,,,,,,,,,,,,,,,,,,,,,,90000,,,,2022-09-14_09h48.37.147,Prime-Probe,2022.2.4,60.02523460865312,
Test,Visual_Stimuli/N_Horiz.png,Visual_Stimuli/T_Left.png,f,Neutral,Incongruent,,,,,,,,,0,18,18,18,,,,,,,,,,,,,,,,,,,,,,,,,,,,,,,,,,,,,,,,,,,,,,,,,,,,,,,,,,,,,,0.007618299999194278,385.8440965,385.8771154,385.9768987,386.7772277,386.91011590000005,388.37664559999996,None,0,F,True,533.2068000000163,0.5080924999991794,1.440996499999187,509,348130,349064,349573,Correct,388.37664559999996,388.5765629,,,,,,,,,,,,,,,,,,,,,,,,,,,,,,,,,,,,,90000,,,,2022-09-14_09h48.37.147,Prime-Probe,2022.2.4,60.02523460865312,
Test,Visual_Stimuli/N_Vert.png,Visual_Stimuli/T_Down.png,n,Neutral,Neutral,,,,,,,,,0,19,19,19,,,,,,,,,,,,,,,,,,,,,,,,,,,,,,,,,,,,,,,,,,,,,,,,,,,,,,,,,,,,,,0.007241899999144152,389.0435444,389.0767157,389.17651920000003,389.9770277,390.10975410000003,391.5763812,None,0,N,True,532.9100000000153,0.5076863999992156,1.4407764999991741,504,351330,352261,352765,Correct,391.5763812,391.7765823,,,,,,,,,,,,,,,,,,,,,,,,,,,,,,,,,,,,,90000,,,,2022-09-14_09h48.37.147,Prime-Probe,2022.2.4,60.02523460865312,
Test,Visual_Stimuli/D_Left.png,Visual_Stimuli/T_Left.png,f,Congruent,Neutral,,,,,,,,,0,20,20,20,,,,,,,,,,,,,,,,,,,,,,,,,,,,,,,,,,,,,,,,,,,,,,,,,,,,,,,,,,,,,,0.0073008999991088785,392.2431695,392.27647550000006,392.3762071,393.17633820000003,393.30934690000004,394.7760121,None,0,F,True,433.1857999999329,0.5074388999991015,1.440366499999186,408,354530,355463,355871,Correct,394.7760121,394.9758895,,,,,,,,,,,,,,,,,,,,,,,,,,,,,,,,,,,,,90000,,,,2022-09-14_09h48.37.147,Prime-Probe,2022.2.4,60.02523460865312,
Test,Visual_Stimuli/D_Up.png,Visual_Stimuli/T_Down.png,n,Incongruent,Congruent,,,,,,,,,0,21,21,21,,,,,,,,,,,,,,,,,,,,,,,,,,,,,,,,,,,,,,,,,,,,,,,,,,,,,,,,,,,,,,0.006575199999133474,395.44279589999996,395.47607089999997,395.576014,396.3759675,396.50912200000005,397.9755106,None,0,N,True,616.1948000000166,0.5070497999990948,1.4400797999991255,585,357729,358663,359248,Correct,397.9755106,398.1757603,,,,,,,,,,,,,,,,,,,,,,,,,,,,,,,,,,,,,90000,,,,2022-09-14_09h48.37.147,Prime-Probe,2022.2.4,60.02523460865312,
Test,Visual_Stimuli/D_Left.png,Visual_Stimuli/T_Right.png,g,Incongruent,Incongruent,,,,,,,,,0,22,22,22,,,,,,,,,,,,,,,,,,,,,,,,,,,,,,,,,,,,,,,,,,,,,,,,,,,,,,,,,,,,,,0.006430399999089786,398.64245430000005,398.67589410000005,398.77558999999997,399.5759981,399.7086011,401.1751292,None,0,G,True,566.2912000000233,0.5069313999990754,1.4398190999989993,536,360929,361860,362396,Correct,401.1751292,401.37525259999995,,,,,,,,,,,,,,,,,,,,,,,,,,,,,,,,,,,,,90000,,,,2022-09-14_09h48.37.147,Prime-Probe,2022.2.4,60.02523460865312,
Test,Visual_Stimuli/D_Down.png,Visual_Stimuli/T_Down.png,n,Congruent,Incongruent,,,,,,,,,0,23,23,23,,,,,,,,,,,,,,,,,,,,,,,,,,,,,,,,,,,,,,,,,,,,,,,,,,,,,,,,,,,,,,0.005936699998983386,401.8422163,401.8754484,401.97516110000004,402.775391,402.908373,404.37534530000005,None,0,N,True,600.089099999991,0.506539199998997,1.4392349999990302,572,364127,365061,365633,Correct,404.37534530000005,404.5748708,,,,,,,,,,,,,,,,,,,,,,,,,,,,,,,,,,,,,90000,,,,2022-09-14_09h48.37.147,Prime-Probe,2022.2.4,60.02523460865312,
Test,Visual_Stimuli/D_Right.png,Visual_Stimuli/T_Left.png,f,Incongruent,Congruent,,,,,,,,,0,24,24,24,,,,,,,,,,,,,,,,,,,,,,,,,,,,,,,,,,,,,,,,,,,,,,,,,,,,,,,,,,,,,,0.005542899998999928,405.04169790000003,405.07518070000003,405.17482430000007,405.9752516,406.10807009999996,407.5744555,None,0,F,True,433.15929999994296,0.5061311999988902,1.4387858999989476,398,367327,368261,368659,Correct,407.5744555,407.7744518999999,,,,,,,,,,,,,,,,,,,,,,,,,,,,,,,,,,,,,90000,,,,2022-09-14_09h48.37.147,Prime-Probe,2022.2.4,60.02523460865312,
Test,Visual_Stimuli/D_Up.png,Visual_Stimuli/T_Up.png,j,Congruent,Incongruent,,,,,,,,,0,25,25,25,,,,,,,,,,,,,,,,,,,,,,,,,,,,,,,,,,,,,,,,,,,,,,,,,,,,,,,,,,,,,,0.005120799998849179,408.2412846000001,408.27475289999995,408.3744547,409.1747365,409.30773469999997,410.77410640000005,None,0,J,True,382.9954000000271,0.5057263999988209,1.4385362999989866,362,370528,371459,371821,Correct,410.77410640000005,410.9741153000001,,,,,,,,,,,,,,,,,,,,,,,,,,,,,,,,,,,,,90000,,,,2022-09-14_09h48.37.147,Prime-Probe,2022.2.4,60.02523460865312,
Test,Visual_Stimuli/D_Left.png,Visual_Stimuli/T_Right.png,g,Incongruent,Congruent,,,,,,,,,0,26,26,26,,,,,,,,,,,,,,,,,,,,,,,,,,,,,,,,,,,,,,,,,,,,,,,,,,,,,,,,,,,,,,0.004793599998947684,411.4409015,411.4745226000001,411.5739534999999,412.3744112999999,412.5072169000001,413.9737034000001,None,0,G,True,599.7257999999874,0.5055425999987619,1.4382640999988325,578,373726,374659,375237,Correct,413.9737034000001,414.17385290000004,,,,,,,,,,,,,,,,,,,,,,,,,,,,,,,,,,,,,90000,,,,2022-09-14_09h48.37.147,Prime-Probe,2022.2.4,60.02523460865312,
Test,Visual_Stimuli/N_Vert.png,Visual_Stimuli/T_Down.png,n,Neutral,Incongruent,,,,,,,,,0,27,27,27,,,,,,,,,,,,,,,,,,,,,,,,,,,,,,,,,,,,,,,,,,,,,,,,,,,,,,,,,,,,,,0.004525799998873481,414.6406604,414.6737518000001,414.7736347000001,415.5739112,415.70688600000005,417.1734513,None,0,N,True,533.0983999999717,0.5047416999987036,1.4376392999988639,511,376926,377858,378369,Correct,417.1734513,417.37325309999994,,,,,,,,,,,,,,,,,,,,,,,,,,,,,,,,,,,,,90000,,,,2022-09-14_09h48.37.147,Prime-Probe,2022.2.4,60.02523460865312,
Test,Visual_Stimuli/D_Left.png,Visual_Stimuli/T_Right.png,g,Incongruent,Neutral,,,,,,,,,0,28,28,28,,,,,,,,,,,,,,,,,,,,,,,,,,,,,,,,,,,,,,,,,,,,,,,,,,,,,,,,,,,,,,0.003928299998733564,417.8401996000001,417.8735631999999,417.9732889999999,418.7735377,418.9065869,420.37289969999995,None,0,G,True,382.8610000000481,0.5045828999986952,1.4375295999986974,358,380125,381058,381416,Correct,420.37289969999995,420.5730294000001,,,,,,,,,,,,,,,,,,,,,,,,,,,,,,,,,,,,,90000,,,,2022-09-14_09h48.37.147,Prime-Probe,2022.2.4,60.02523460865312,
Test,Visual_Stimuli/D_Up.png,Visual_Stimuli/T_Down.png,n,Incongruent,Incongruent,,,,,,,,,0,29,29,29,,,,,,,,,,,,,,,,,,,,,,,,,,,,,,,,,,,,,,,,,,,,,,,,,,,,,,,,,,,,,,0.003714999998692292,421.0397985000001,421.07318999999995,421.1728813000001,421.97307749999993,422.1062227000001,423.57272610000007,None,0,N,True,433.0551000000469,0.5041769999986627,1.4369728999986364,395,383325,384259,384654,Correct,423.57272610000007,423.77253959999996,,,,,,,,,,,,,,,,,,,,,,,,,,,,,,,,,,,,,90000,,,,2022-09-14_09h48.37.147,Prime-Probe,2022.2.4,60.02523460865312,
Test,Visual_Stimuli/N_Horiz.png,Visual_Stimuli/T_Left.png,f,Neutral,Incongruent,,,,,,,,,0,30,30,30,,,,,,,,,,,,,,,,,,,,,,,,,,,,,,,,,,,,,,,,,,,,,,,,,,,,,,,,,,,,,,0.0032087999986742943,424.23951279999994,424.2727582000001,424.37264530000004,425.1730477,425.30578019999996,426.7723953000001,None,0,F,True,349.8549999999341,0.5037262999987888,1.4365978999987874,323,386525,387457,387780,Correct,426.7723953000001,426.9721066000001,,,,,,,,,,,,,,,,,,,,,,,,,,,,,,,,,,,,,90000,,,,2022-09-14_09h48.37.147,Prime-Probe,2022.2.4,60.02523460865312,
Test,Visual_Stimuli/D_Up.png,Visual_Stimuli/T_Up.png,j,Congruent,Neutral,,,,,,,,,0,31,31,31,,,,,,,,,,,,,,,,,,,,,,,,,,,,,,,,,,,,,,,,,,,,,,,,,,,,,,,,,,,,,,0.0028016999985993607,427.4391177000001,427.472529,427.5721511999999,428.3727934,428.5057577000001,429.9719351,None,0,J,True,416.5258000000449,0.5035426999986612,1.4362494999986666,379,389724,390657,391036,Correct,429.9719351,430.1722662000001,,,,,,,,,,,,,,,,,,,,,,,,,,,,,,,,,,,,,90000,,,,2022-09-14_09h48.37.147,Prime-Probe,2022.2.4,60.02523460865312,
Test,Visual_Stimuli/D_Right.png,Visual_Stimuli/T_Left.png,f,Incongruent,Congruent,,,,,,,,,0,32,32,32,,,,,,,,,,,,,,,,,,,,,,,,,,,,,,,,,,,,,,,,,,,,,,,,,,,,,,,,,,,,,,0.0029377999985626957,430.6386661,430.6720214999999,430.77185369999995,431.57205650000003,431.70526570000004,433.17147349999993,None,0,F,True,449.4560000000547,0.5029695999985506,1.4363551999986157,415,392924,393856,394271,Correct,433.17147349999993,433.37141039999995,,,,,,,,,,,,,,,,,,,,,,,,,,,,,,,,,,,,,90000,,,,2022-09-14_09h48.37.147,Prime-Probe,2022.2.4,60.02523460865312,
Test,Visual_Stimuli/D_Down.png,Visual_Stimuli/T_Up.png,j,Incongruent,Incongruent,,,,,,,,,0,33,33,33,,,,,,,,,,,,,,,,,,,,,,,,,,,,,,,,,,,,,,,,,,,,,,,,,,,,,,,,,,,,,,0.0020802999986244686,433.8384543000001,433.87166749999994,433.97190209999997,434.77162770000007,434.904592,436.3712055,None,0,J,True,483.4681999998338,0.5026676999984829,1.43549449999864,455,396124,397056,397511,Correct,436.3712055,436.57107009999993,,,,,,,,,,,,,,,,,,,,,,,,,,,,,,,,,,,,,90000,,,,2022-09-14_09h48.37.147,Prime-Probe,2022.2.4,60.02523460865312,
Test,Visual_Stimuli/D_Right.png,Visual_Stimuli/T_Right.png,g,Congruent,Incongruent,,,,,,,,,0,34,34,34,,,,,,,,,,,,,,,,,,,,,,,,,,,,,,,,,,,,,,,,,,,,,,,,,,,,,,,,,,,,,,0.0017576999985067232,437.0379703,437.0711861000001,437.17097249999995,437.97139759999993,438.1044198999999,439.57079209999995,None,0,G,True,366.1681999999473,0.5022166999985984,1.4353825999985474,343,399322,400256,400599,Correct,439.57079209999995,439.77076840000007,,,,,,,,,,,,,,,,,,,,,,,,,,,,,,,,,,,,,90000,,,,2022-09-14_09h48.37.147,Prime-Probe,2022.2.4,60.02523460865312,
Test,Visual_Stimuli/N_Vert.png,Visual_Stimuli/T_Up.png,j,Neutral,Congruent,,,,,,,,,0,35,35,35,,,,,,,,,,,,,,,,,,,,,,,,,,,,,,,,,,,,,,,,,,,,,,,,,,,,,,,,,,,,,,0.0014437999984693306,440.2376531000001,440.27098220000005,440.3706484999999,441.1709522,441.30383560000007,442.77040509999995,None,0,J,True,866.5103000000727,0.501948299998503,1.4348715999983597,841,402522,403454,404295,Correct,442.77040509999995,442.97033739999995,,,,,,,,,,,,,,,,,,,,,,,,,,,,,,,,,,,,,90000,,,,2022-09-14_09h48.37.147,Prime-Probe,2022.2.4,60.02523460865312,
Test,Visual_Stimuli/D_Right.png,Visual_Stimuli/T_Right.png,g,Congruent,Neutral,,,,,,,,,0,36,36,36,,,,,,,,,,,,,,,,,,,,,,,,,,,,,,,,,,,,,,,,,,,,,,,,,,,,,,,,,,,,,,0.0010278999984620896,443.437644,443.4706486000001,443.57035540000004,444.37063780000005,444.50376829999993,445.9699844999999,None,0,G,True,366.2874000001466,0.5017379999983405,1.4345496999983425,341,405722,406655,406996,Correct,445.9699844999999,446.1699311000001,,,,,,,,,,,,,,,,,,,,,,,,,,,,,,,,,,,,,90000,,,,2022-09-14_09h48.37.147,Prime-Probe,2022.2.4,60.02523460865312,
Test,Visual_Stimuli/N_Vert.png,Visual_Stimuli/T_Up.png,j,Neutral,Congruent,,,,,,,,,0,37,37,37,,,,,,,,,,,,,,,,,,,,,,,,,,,,,,,,,,,,,,,,,,,,,,,,,,,,,,,,,,,,,,0.0006107999984124035,446.63696590000006,446.6701655999999,446.7698762000001,447.57014820000006,447.70335850000004,449.1696653,None,0,J,True,633.1387000000177,0.5011181999984728,1.4339505999982975,603,408920,409853,410456,Correct,449.1696653,449.3697499000001,,,,,,,,,,,,,,,,,,,,,,,,,,,,,,,,,,,,,90000,,,,2022-09-14_09h48.37.147,Prime-Probe,2022.2.4,60.02523460865312,
Test,Visual_Stimuli/D_Left.png,Visual_Stimuli/T_Left.png,f,Congruent,Neutral,,,,,,,,,0,38,38,38,,,,,,,,,,,,,,,,,,,,,,,,,,,,,,,,,,,,,,,,,,,,,,,,,,,,,,,,,,,,,,0.0004573999983676913,449.83655379999993,449.86976059999995,449.9694994,450.76983430000007,450.9030438000001,452.3699619,None,0,F,True,983.1397000000379,0.5007331999984217,1.4338077999982488,957,412121,413053,414010,TooSlow,452.3699619,452.5692957,,,,,,,,,,,,,,,,,,,,,,,,,,,,,,,,,,,,,90000,,,,2022-09-14_09h48.37.147,Prime-Probe,2022.2.4,60.02523460865312,
Test,Visual_Stimuli/D_Up.png,Visual_Stimuli/T_Up.png,j,Congruent,Congruent,,,,,,,,,0,39,39,39,,,,,,,,,,,,,,,,,,,,,,,,,,,,,,,,,,,,,,,,,,,,,,,,,,,,,,,,,,,,,,-2.3900001679066918e-05,453.0361443999999,453.0696365,453.16912119999995,453.96935599999995,454.10253410000007,455.56885339999997,None,0,J,True,333.2448999999542,0.5006765999983145,1.4332686999982798,305,415319,416253,416558,Correct,455.56885339999997,455.7688988000001,,,,,,,,,,,,,,,,,,,,,,,,,,,,,,,,,,,,,90000,,,,2022-09-14_09h48.37.147,Prime-Probe,2022.2.4,60.02523460865312,
Test,Visual_Stimuli/D_Right.png,Visual_Stimuli/T_Right.png,g,Congruent,Congruent,,,,,,,,,0,40,40,40,,,,,,,,,,,,,,,,,,,,,,,,,,,,,,,,,,,,,,,,,,,,,,,,,,,,,,,,,,,,,,-0.0004016000018509658,456.2361211000001,456.26913649999995,456.3687813,457.1690307,457.3022247,458.7684802,None,0,G,True,316.51579999993373,0.5003144999982396,1.4495726999982708,286,418519,419470,419756,Correct,458.7684802,458.9684943000001,,,,,,,,,,,,,,,,,,,,,,,,,,,,,,,,,,,,,90000,,,,2022-09-14_09h48.37.147,Prime-Probe,2022.2.4,60.02523460865312,
Test,Visual_Stimuli/N_Vert.png,Visual_Stimuli/T_Up.png,j,Neutral,Congruent,,,,,,,,,0,41,41,41,,,,,,,,,,,,,,,,,,,,,,,,,,,,,,,,,,,,,,,,,,,,,,,,,,,,,,,,,,,,,,-0.0008369000017864892,459.43557369999996,459.4687227999999,459.5685046,460.36863030000006,460.5017805000001,461.9681824999999,None,0,J,True,583.5270999998556,0.5163746999980958,1.4494029999982558,553,421736,422669,423222,Correct,461.98480929999994,462.18486629999995,,,,,,,,,,,,,,,,,,,,,,,,,,,,,,,,,,,,,90000,,,,2022-09-14_09h48.37.147,Prime-Probe,2022.2.4,60.02523460865312,
Test,Visual_Stimuli/N_Horiz.png,Visual_Stimuli/T_Left.png,f,Neutral,Neutral,,,,,,,,,0,42,42,42,,,,,,,,,,,,,,,,,,,,,,,,,,,,,,,,,,,,,,,,,,,,,,,,,,,,,,,,,,,,,,0.00010279999810336449,462.6519661000001,462.66849749999994,462.7847886999999,463.5849213,463.71800730000007,465.16772019999996,None,0,F,True,382.8899000000092,0.5156625999982225,1.4489858999982062,347,424936,425869,426216,Correct,465.1844995,465.38449230000003,,,,,,,,,,,,,,,,,,,,,,,,,,,,,,,,,,,,,90000,,,,2022-09-14_09h48.37.147,Prime-Probe,2022.2.4,60.02523460865312,
Test,Visual_Stimuli/D_Down.png,Visual_Stimuli/T_Up.png,j,Incongruent,Neutral,,,,,,,,,0,43,43,43,,,,,,,,,,,,,,,,,,,,,,,,,,,,,,,,,,,,,,,,,,,,,,,,,,,,,,,,,,,,,,-0.0006318000018836756,465.8514504000001,465.8846443000001,465.9845885000001,466.78465360000007,466.9176159,468.3841747,None,0,J,True,616.164900000058,0.5156338999981926,1.4485983999979908,581,428135,429069,429650,Correct,468.3841747,468.5840148000001,,,,,,,,,,,,,,,,,,,,,,,,,,,,,,,,,,,,,90000,,,,2022-09-14_09h48.37.147,Prime-Probe,2022.2.4,60.02523460865312,
Test,Visual_Stimuli/D_Left.png,Visual_Stimuli/T_Left.png,f,Congruent,Incongruent,,,,,,,,,0,44,44,44,,,,,,,,,,,,,,,,,,,,,,,,,,,,,,,,,,,,,,,,,,,,,,,,,,,,,,,,,,,,,,0.014683399998148161,469.0513136999999,469.0843965,469.18410929999993,469.98429,470.1171938000001,471.5837344,None,0,F,True,566.4538999999422,0.5153595999979643,1.4479893999980504,533,431335,432267,432800,Correct,471.5837344,471.7837449,,,,,,,,,,,,,,,,,,,,,,,,,,,,,,,,,,,,,90000,,,,2022-09-14_09h48.37.147,Prime-Probe,2022.2.4,60.02523460865312,
Test,Visual_Stimuli/N_Vert.png,Visual_Stimuli/T_Down.png,n,Neutral,Congruent,,,,,,,,,0,45,45,45,,,,,,,,,,,,,,,,,,,,,,,,,,,,,,,,,,,,,,,,,,,,,,,,,,,,,,,,,,,,,,0.014438999997992141,472.2507876000001,472.28382369999997,472.3838084,473.18381609999994,473.3168412000001,474.7833233,None,0,N,True,466.1935999999969,0.5148436999979822,1.44788629999789,444,434533,435468,435912,Correct,474.7833233,474.98339109999995,,,,,,,,,,,,,,,,,,,,,,,,,,,,,,,,,,,,,90000,,,,2022-09-14_09h48.37.147,Prime-Probe,2022.2.4,60.02523460865312,
Test,Visual_Stimuli/D_Right.png,Visual_Stimuli/T_Left.png,f,Incongruent,Neutral,,,,,,,,,0,46,46,46,,,,,,,,,,,,,,,,,,,,,,,,,,,,,,,,,,,,,,,,,,,,,,,,,,,,,,,,,,,,,,0.014076099997964775,475.45096150000006,475.4834996000001,475.5833122,476.38357239999993,476.51648880000005,477.98297220000006,None,0,F,True,399.4089000000258,0.5145103999980165,1.4477799999979197,370,437733,438666,439036,Correct,477.98297220000006,478.18289960000004,,,,,,,,,,,,,,,,,,,,,,,,,,,,,,,,,,,,,90000,,,,2022-09-14_09h48.37.147,Prime-Probe,2022.2.4,60.02523460865312,
Test,Visual_Stimuli/N_Vert.png,Visual_Stimuli/T_Down.png,n,Neutral,Incongruent,,,,,,,,,0,47,47,47,,,,,,,,,,,,,,,,,,,,,,,,,,,,,,,,,,,,,,,,,,,,,,,,,,,,,,,,,,,,,,0.013571599997931116,478.6498293000001,478.6833166,478.78339029999995,479.58305329999996,479.7165157999999,481.1826907000001,None,0,N,True,615.5441999999312,0.5143214999980046,1.4478444999979274,589,440934,441866,442455,Correct,481.1826907000001,481.38256519999993,,,,,,,,,,,,,,,,,,,,,,,,,,,,,,,,,,,,,90000,,,,2022-09-14_09h48.37.147,Prime-Probe,2022.2.4,60.02523460865312,
Test,Visual_Stimuli/D_Right.png,Visual_Stimuli/T_Left.png,f,Incongruent,Neutral,,,,,,,,,0,48,48,48,,,,,,,,,,,,,,,,,,,,,,,,,,,,,,,,,,,,,,,,,,,,,,,,,,,,,,,,,,,,,,0.013233799997806273,481.8500422999999,481.8827946,481.9824869,482.7828536999999,482.9157280999999,484.3823696999999,None,0,F,True,366.97289999983695,0.5137914999977511,1.4466300999979467,334,444132,445066,445400,Correct,484.3823696999999,484.5823669,,,,,,,,,,,,,,,,,,,,,,,,,,,,,,,,,,,,,90000,,,,2022-09-14_09h48.37.147,Prime-Probe,2022.2.4,60.02523460865312,
Test,Visual_Stimuli/D_Down.png,Visual_Stimuli/T_Down.png,n,Congruent,Incongruent,,,,,,,,,0,49,49,49,,,,,,,,,,,,,,,,,,,,,,,,,,,,,,,,,,,,,,,,,,,,,,,,,,,,,,,,,,,,,,0.013051699997731703,485.0491094,485.0825510000001,485.1826264,485.9825151000001,486.1154504,487.58193399999993,None,0,N,True,516.3692999999512,0.5135377999977209,1.4463515999977972,485,447332,448265,448750,Correct,487.58193399999993,487.78174550000006,,,,,,,,,,,,,,,,,,,,,,,,,,,,,,,,,,,,,90000,,,,2022-09-14_09h48.37.147,Prime-Probe,2022.2.4,60.02523460865312,
Test,Visual_Stimuli/D_Left.png,Visual_Stimuli/T_Left.png,f,Congruent,Congruent,,,,,,,,,0,50,50,50,,,,,,,,,,,,,,,,,,,,,,,,,,,,,,,,,,,,,,,,,,,,,,,,,,,,,,,,,,,,,,0.012416099997835772,488.24863930000004,488.2819743000001,488.38190169999996,489.18234530000007,489.3150091000001,490.7816415000001,None,0,F,True,416.3957000000664,0.5129549999978735,1.4458633999977337,387,450532,451465,451852,Correct,490.7816415000001,490.98152659999994,,,,,,,,,,,,,,,,,,,,,,,,,,,,,,,,,,,,,90000,,,,2022-09-14_09h48.37.147,Prime-Probe,2022.2.4,60.02523460865312,
Test,Visual_Stimuli/D_Up.png,Visual_Stimuli/T_Up.png,j,Congruent,Congruent,,,,,,,,,0,51,51,51,,,,,,,,,,,,,,,,,,,,,,,,,,,,,,,,,,,,,,,,,,,,,,,,,,,,,,,,,,,,,,0.012209099997789963,491.44851140000003,491.48155869999994,491.58150549999993,492.3819046,492.5145521999999,493.9811747,None,0,J,True,716.2995999999566,0.5125253999976849,1.4455678999977408,692,453731,454665,455357,Correct,493.9811747,494.1810896999999,,,,,,,,,,,,,,,,,,,,,,,,,,,,,,,,,,,,,90000,,,,2022-09-14_09h48.37.147,Prime-Probe,2022.2.4,60.02523460865312,
Test,Visual_Stimuli/D_Right.png,Visual_Stimuli/T_Right.png,g,Congruent,Congruent,,,,,,,,,0,52,52,52,,,,,,,,,,,,,,,,,,,,,,,,,,,,,,,,,,,,,,,,,,,,,,,,,,,,,,,,,,,,,,0.011760299997604307,494.64810350000005,494.6812754000001,494.78119649999996,495.5815570000001,495.7143296999999,497.18073560000005,None,0,G,True,416.2134000000606,0.5122317999976076,1.4453145999975732,387,456931,457864,458251,Correct,497.18073560000005,497.3807676,,,,,,,,,,,,,,,,,,,,,,,,,,,,,,,,,,,,,90000,,,,2022-09-14_09h48.37.147,Prime-Probe,2022.2.4,60.02523460865312,
Test,Visual_Stimuli/D_Up.png,Visual_Stimuli/T_Up.png,j,Congruent,Congruent,,,,,,,,,0,53,53,53,,,,,,,,,,,,,,,,,,,,,,,,,,,,,,,,,,,,,,,,,,,,,,,,,,,,,,,,,,,,,,0.011473999997633655,497.84767309999995,497.88092070000005,497.9807202999999,498.7809304000001,498.91390549999994,500.3804300999999,None,0,J,True,566.20410000005,0.5120440999976381,1.445034999997688,541,460130,461064,461605,Correct,500.3804300999999,500.5804286000001,,,,,,,,,,,,,,,,,,,,,,,,,,,,,,,,,,,,,90000,,,,2022-09-14_09h48.37.147,Prime-Probe,2022.2.4,60.02523460865312,
Test,Visual_Stimuli/N_Horiz.png,Visual_Stimuli/T_Right.png,g,Neutral,Congruent,,,,,,,,,0,54,54,54,,,,,,,,,,,,,,,,,,,,,,,,,,,,,,,,,,,,,,,,,,,,,,,,,,,,,,,,,,,,,,0.011096399997541084,501.0472863000001,501.08049919999996,501.1803782999999,501.9806941999999,502.11343309999995,503.57996949999995,None,0,G,True,482.8893999999764,0.5114735999975437,1.4445355999976073,458,463330,464261,464719,Correct,503.57996949999995,503.77994679999995,,,,,,,,,,,,,,,,,,,,,,,,,,,,,,,,,,,,,90000,,,,2022-09-14_09h48.37.147,Prime-Probe,2022.2.4,60.02523460865312,
Test,Visual_Stimuli/N_Vert.png,Visual_Stimuli/T_Down.png,n,Neutral,Neutral,,,,,,,,,0,55,55,55,,,,,,,,,,,,,,,,,,,,,,,,,,,,,,,,,,,,,,,,,,,,,,,,,,,,,,,,,,,,,,0.010618099997600439,504.2469169,504.28017080000006,504.3798846000001,505.1800821999999,505.31359409999993,506.77972050000005,None,0,F,False,432.8128999998171,0.5112529999976232,1.4443200999976398,408,466530,467463,467871,Incorrect,506.77972050000005,506.97961,,,,,,,,,,,,,,,,,,,,,,,,,,,,,,,,,,,,,90000,,,,2022-09-14_09h48.37.147,Prime-Probe,2022.2.4,60.02523460865312,
Test,Visual_Stimuli/N_Horiz.png,Visual_Stimuli/T_Right.png,g,Neutral,Neutral,,,,,,,,,0,56,56,56,,,,,,,,,,,,,,,,,,,,,,,,,,,,,,,,,,,,,,,,,,,,,,,,,,,,,,,,,,,,,,0.010301199997456933,507.44658620000007,507.47979109999994,507.5795179999999,508.37987039999996,508.512797,509.9793036,None,0,G,True,799.7890999999981,0.5107851999975992,1.4436802999975953,772,469728,470663,471435,Correct,509.9793036,510.1791873000001,,,,,,,,,,,,,,,,,,,,,,,,,,,,,,,,,,,,,90000,,,,2022-09-14_09h48.37.147,Prime-Probe,2022.2.4,60.02523460865312,
Test,Visual_Stimuli/D_Up.png,Visual_Stimuli/T_Down.png,n,Incongruent,Neutral,,,,,,,,,0,57,57,57,,,,,,,,,,,,,,,,,,,,,,,,,,,,,,,,,,,,,,,,,,,,,,,,,,,,,,,,,,,,,,0.009873099997548707,510.64621479999994,510.6795641,510.7791149000001,511.5793615000001,511.7125227,513.1788742,None,0,N,True,532.841499999904,0.5105627999973876,1.443454899997505,512,472929,473860,474372,Correct,513.1788742,513.3788595,,,,,,,,,,,,,,,,,,,,,,,,,,,,,,,,,,,,,90000,,,,2022-09-14_09h48.37.147,Prime-Probe,2022.2.4,60.02523460865312,
Test,Visual_Stimuli/N_Horiz.png,Visual_Stimuli/T_Right.png,g,Neutral,Incongruent,,,,,,,,,0,58,58,58,,,,,,,,,,,,,,,,,,,,,,,,,,,,,,,,,,,,,,,,,,,,,,,,,,,,,,,,,,,,,,0.009525699997311676,513.8458604000001,513.8789657000001,513.9788361,514.7789875,514.9121819000001,516.3784709,None,0,G,True,733.0663999998706,0.5100166999973226,1.4429469999975026,696,476127,477061,477757,Correct,516.3784709,516.5785152,,,,,,,,,,,,,,,,,,,,,,,,,,,,,,,,,,,,,90000,,,,2022-09-14_09h48.37.147,Prime-Probe,2022.2.4,60.02523460865312,
Test,Visual_Stimuli/D_Down.png,Visual_Stimuli/T_Down.png,n,Congruent,Neutral,,,,,,,,,0,59,59,59,,,,,,,,,,,,,,,,,,,,,,,,,,,,,,,,,,,,,,,,,,,,,,,,,,,,,,,,,,,,,,0.00918399999727626,517.0455674000001,517.0786681000001,517.1784687,517.9786908,518.1117498,519.5783351000001,None,0,N,True,649.4921999999406,0.5097026999974332,1.4427100999973845,616,479327,480259,480875,Correct,519.5783351000001,519.7782751999999,,,,,,,,,,,,,,,,,,,,,,,,,,,,,,,,,,,,,90000,,,,2022-09-14_09h48.37.147,Prime-Probe,2022.2.4,60.02523460865312,
Test,Visual_Stimuli/N_Horiz.png,Visual_Stimuli/T_Left.png,f,Neutral,Congruent,,,,,,,,,0,60,60,60,,,,,,,,,,,,,,,,,,,,,,,,,,,,,,,,,,,,,,,,,,,,,,,,,,,,,,,,,,,,,,0.008998799997243623,520.2452545,520.2783139,520.3780995000001,521.1785215000001,521.3113445,522.7778073999999,None,0,F,True,516.0167000001366,0.5092580999973961,1.4427652999972906,490,482528,483459,483949,Correct,522.7778073999999,522.9777174,,,,,,,,,,,,,,,,,,,,,,,,,,,,,,,,,,,,,90000,,,,2022-09-14_09h48.37.147,Prime-Probe,2022.2.4,60.02523460865312,
Test,Visual_Stimuli/D_Up.png,Visual_Stimuli/T_Up.png,j,Congruent,Neutral,,,,,,,,,0,61,61,61,,,,,,,,,,,,,,,,,,,,,,,,,,,,,,,,,,,,,,,,,,,,,,,,,,,,,,,,,,,,,,0.008386799997197159,523.4446391,523.4779812,523.577637,524.3779979,524.5110334,525.9774240999999,None,0,J,True,399.66149999986555,0.5089829999972153,1.4419140999973479,370,485726,486659,487029,Correct,525.9774240999999,526.1775962,,,,,,,,,,,,,,,,,,,,,,,,,,,,,,,,,,,,,90000,,,,2022-09-14_09h48.37.147,Prime-Probe,2022.2.4,60.02523460865312,
Test,Visual_Stimuli/N_Horiz.png,Visual_Stimuli/T_Right.png,g,Neutral,Congruent,,,,,,,,,0,62,62,62,,,,,,,,,,,,,,,,,,,,,,,,,,,,,,,,,,,,,,,,,,,,,,,,,,,,,,,,,,,,,,0.008321999997178864,526.644723,526.6777258999999,526.7775282000001,527.5774909999999,527.7106273,529.1772027000001,None,0,G,True,1049.5637999999872,0.5087189999971997,1.4415800999972816,1021,488926,489857,490878,TooSlow,529.1772027000001,529.3770525000001,,,,,,,,,,,,,,,,,,,,,,,,,,,,,,,,,,,,,90000,,,,2022-09-14_09h48.37.147,Prime-Probe,2022.2.4,60.02523460865312,
Test,Visual_Stimuli/D_Down.png,Visual_Stimuli/T_Up.png,j,Incongruent,Neutral,,,,,,,,,0,63,63,63,,,,,,,,,,,,,,,,,,,,,,,,,,,,,,,,,,,,,,,,,,,,,,,,,,,,,,,,,,,,,,0.0077243999971869926,529.8441905999999,529.8773514999999,529.9769064000001,530.7771543,530.910258,532.3768191,None,0,J,True,383.38920000001053,0.5083605999971041,1.440989399997079,347,492126,493058,493405,Correct,532.3768191,532.5766738000001,,,,,,,,,,,,,,,,,,,,,,,,,,,,,,,,,,,,,90000,,,,2022-09-14_09h48.37.147,Prime-Probe,2022.2.4,60.02523460865312,
Test,Visual_Stimuli/D_Right.png,Visual_Stimuli/T_Left.png,f,Incongruent,Incongruent,,,,,,,,,0,64,64,64,,,,,,,,,,,,,,,,,,,,,,,,,,,,,,,,,,,,,,,,,,,,,,,,,,,,,,,,,,,,,,0.007353599997031779,533.0439096000001,533.0768830000001,533.1765915,533.9769075,534.1098788,535.5763204000001,None,0,F,True,366.4286999999149,0.5078800999972373,1.4409264999972038,337,495325,496258,496595,Correct,535.5763204000001,535.7764609,,,,,,,,,,,,,,,,,,,,,,,,,,,,,,,,,,,,,90000,,,,2022-09-14_09h48.37.147,Prime-Probe,2022.2.4,60.02523460865312,
Test,Visual_Stimuli/N_Vert.png,Visual_Stimuli/T_Down.png,n,Neutral,Incongruent,,,,,,,,,0,65,65,65,,,,,,,,,,,,,,,,,,,,,,,,,,,,,,,,,,,,,,,,,,,,,,,,,,,,,,,,,,,,,,0.007128599997031415,536.2434073999999,536.2764547,536.3762498,537.1764986,537.3095196,538.7761775,None,0,N,True,483.31149999989975,0.5074530999970648,1.440273999997089,456,498525,499456,499912,Correct,538.7761775,538.9759903,,,,,,,,,,,,,,,,,,,,,,,,,,,,,,,,,,,,,90000,,,,2022-09-14_09h48.37.147,Prime-Probe,2022.2.4,60.02523460865312,
Test,Visual_Stimuli/D_Left.png,Visual_Stimuli/T_Right.png,g,Incongruent,Neutral,,,,,,,,,0,66,66,66,,,,,,,,,,,,,,,,,,,,,,,,,,,,,,,,,,,,,,,,,,,,,,,,,,,,,,,,,,,,,,0.006658599997081183,539.4429441999999,539.4761555000001,539.5759969,540.3761616,540.5091596999999,541.9756515,None,0,G,True,533.3865999998579,0.5071596999971462,1.43993089999708,500,501725,502656,503156,Correct,541.9756515,542.1756909,,,,,,,,,,,,,,,,,,,,,,,,,,,,,,,,,,,,,90000,,,,2022-09-14_09h48.37.147,Prime-Probe,2022.2.4,60.02523460865312,
Test,Visual_Stimuli/N_Vert.png,Visual_Stimuli/T_Up.png,j,Neutral,Incongruent,,,,,,,,,0,67,67,67,,,,,,,,,,,,,,,,,,,,,,,,,,,,,,,,,,,,,,,,,,,,,,,,,,,,,,,,,,,,,,0.006359399997108994,542.6425513,542.6758688000001,542.7757169,543.5757873000001,543.7086892000001,545.1757084,None,0,J,True,633.2356000000345,0.5068487999969875,1.439584999996896,597,504922,505855,506452,Correct,545.1757084,545.3751747,,,,,,,,,,,,,,,,,,,,,,,,,,,,,,,,,,,,,90000,,,,2022-09-14_09h48.37.147,Prime-Probe,2022.2.4,60.02523460865312,
Test,Visual_Stimuli/N_Horiz.png,Visual_Stimuli/T_Right.png,g,Neutral,Neutral,,,,,,,,,0,68,68,68,,,,,,,,,,,,,,,,,,,,,,,,,,,,,,,,,,,,,,,,,,,,,,,,,,,,,,,,,,,,,,0.0058580999968853575,545.8421520999999,545.8753195,545.9752087999999,546.7753442,546.9083353,548.3749223000001,None,0,G,True,466.44709999986844,0.5062964999970063,1.439287899996998,444,508124,509055,509499,Correct,548.3749223000001,548.5751417,,,,,,,,,,,,,,,,,,,,,,,,,,,,,,,,,,,,,90000,,,,2022-09-14_09h48.37.147,Prime-Probe,2022.2.4,60.02523460865312,
Test,Visual_Stimuli/N_Vert.png,Visual_Stimuli/T_Up.png,j,Neutral,Neutral,,,,,,,,,0,69,69,69,,,,,,,,,,,,,,,,,,,,,,,,,,,,,,,,,,,,,,,,,,,,,,,,,,,,,,,,,,,,,,0.0058280999969611,549.0417423,549.0750764999999,549.1754116999999,549.9751622,550.1080195999999,551.5745900000001,None,0,J,True,783.0871999999545,0.5061183999969217,1.4389022999969256,756,511321,512255,513011,Correct,551.5745900000001,551.7745467000001,,,,,,,,,,,,,,,,,,,,,,,,,,,,,,,,,,,,,90000,,,,2022-09-14_09h48.37.147,Prime-Probe,2022.2.4,60.02523460865312,
Test,Visual_Stimuli/N_Horiz.png,Visual_Stimuli/T_Left.png,f,Neutral,Neutral,,,,,,,,,0,70,70,70,,,,,,,,,,,,,,,,,,,,,,,,,,,,,,,,,,,,,,,,,,,,,,,,,,,,,,,,,,,,,,0.0052166999969358585,552.2416235,552.2746080999999,552.3745014,553.1748303,553.3075736,554.7745917999999,None,0,F,True,382.8960000000734,0.5056794999968588,1.4385945999968044,363,514521,515454,515817,Correct,554.7745917999999,554.9741508000001,,,,,,,,,,,,,,,,,,,,,,,,,,,,,,,,,,,,,90000,,,,2022-09-14_09h48.37.147,Prime-Probe,2022.2.4,60.02523460865312,
Test,Visual_Stimuli/D_Down.png,Visual_Stimuli/T_Down.png,n,Congruent,Neutral,,,,,,,,,0,71,71,71,,,,,,,,,,,,,,,,,,,,,,,,,,,,,,,,,,,,,,,,,,,,,,,,,,,,,,,,,,,,,,0.0048408999969069555,555.4410153,555.4742891,555.5740514,556.3743704,556.5073128,557.9737467000001,None,0,N,True,316.4520000000266,0.5052393999967535,1.438091099996882,287,517721,518654,518941,Correct,557.9737467000001,558.2762716000001,,,,,,,,,,,,,,,,,,,,,,,,,,,,,,,,,,,,,90000,,,,2022-09-14_09h48.37.147,Prime-Probe,2022.2.4,60.02523460865312,
,,,,,,,,,,,,,,,,,,,,,,,,,,,,,,,,,,,,,,,,,,,,,,,,,,,,,,,,,,,,,,,,,,,,,,,,,,,,,,,,,,,,,,,,,,,,,,,,,,,,,,,567.8282743999999,567.8282743999999,None,,,558.2762716000001,558.2762716000001,,,,,,,,,,,,,,,,,,,,,,,,,,,90000,,,,2022-09-14_09h48.37.147,Prime-Probe,2022.2.4,60.02523460865312,
Test,Visual_Stimuli/N_Horiz.png,Visual_Stimuli/T_Left.png,f,Neutral,None,,,,,,,,,,,,,0,0,0,0,,,,,,,,,,,,,,,,,,,,,,,,,,,,,,,,,,,,,,,,,,,,,,,,,,,,,,567.8282743999999,569.639454,569.639454,569.8390588999999,0.005753500000082568,570.3060779000001,570.3396296,570.4389301,571.2392039,571.3722601999999,572.8387478999999,None,0,F,True,449.2159999999785,0.5153917000000092,1.4482816000002003,412,532586,533519,533931,Correct,572.8387478999999,573.0386327,,,,,,,,,,,,,,,,,,,,,,,,,,,,,,,,,,,,,90000,,,,2022-09-14_09h48.37.147,Prime-Probe,2022.2.4,60.02523460865312,
Test,Visual_Stimuli/D_Up.png,Visual_Stimuli/T_Down.png,n,Incongruent,Neutral,,,,,,,,,,,,,0,1,1,1,,,,,,,,,,,,,,,,,,,,,,,,,,,,,,,,,,,,,,,,,,,,,,,,,,,,,,,,,,0.014009900000019115,573.5057170000001,573.5387362,573.6386263,574.4387297,574.5717564,576.0382912000001,None,0,N,True,549.6149000000514,0.5144162999999935,1.4475016999999752,513,535784,536719,537232,Correct,576.0382912000001,576.23824,,,,,,,,,,,,,,,,,,,,,,,,,,,,,,,,,,,,,90000,,,,2022-09-14_09h48.37.147,Prime-Probe,2022.2.4,60.02523460865312,
Test,Visual_Stimuli/D_Left.png,Visual_Stimuli/T_Left.png,f,Congruent,Incongruent,,,,,,,,,,,,,0,2,2,2,,,,,,,,,,,,,,,,,,,,,,,,,,,,,,,,,,,,,,,,,,,,,,,,,,,,,,,,,,0.013680499999964013,576.705417,576.7385977,576.8382578,577.6383652000001,577.7715545,579.2379331000001,None,0,F,True,516.1705999998958,0.5143032000000858,1.44720140000004,481,538985,539917,540398,Correct,579.2379331000001,579.4379882,,,,,,,,,,,,,,,,,,,,,,,,,,,,,,,,,,,,,90000,,,,2022-09-14_09h48.37.147,Prime-Probe,2022.2.4,60.02523460865312,
Test,Visual_Stimuli/N_Vert.png,Visual_Stimuli/T_Up.png,j,Neutral,Congruent,,,,,,,,,,,,,0,3,3,3,,,,,,,,,,,,,,,,,,,,,,,,,,,,,,,,,,,,,,,,,,,,,,,,,,,,,,,,,,0.013412300000027244,579.9049185,579.9382454,580.0381446,580.8384179999999,580.9711122,582.4376163000001,None,0,J,True,449.74920000004204,0.513970499999914,1.446687299999894,423,542185,543118,543541,Correct,582.4376163000001,582.6376891000001,,,,,,,,,,,,,,,,,,,,,,,,,,,,,,,,,,,,,90000,,,,2022-09-14_09h48.37.147,Prime-Probe,2022.2.4,60.02523460865312,
Test,Visual_Stimuli/D_Right.png,Visual_Stimuli/T_Right.png,g,Congruent,Neutral,,,,,,,,,,,,,0,4,4,4,,,,,,,,,,,,,,,,,,,,,,,,,,,,,,,,,,,,,,,,,,,,,,,,,,,,,,,,,,0.013079099999913524,583.1046711,583.1382093999999,583.2376965,584.0378202999999,584.1706984000001,,None,0,G,True,432.84189999985756,0.5140707999998995,1.4464884999999867,402,545383,546318,546720,Correct,585.6539313,,,,,,,,,,,,,,,,,,,,,,,,,,,,,,,,,,,,,,90000,,,,2022-09-14_09h48.37.147,Prime-Probe,2022.2.4,60.02523460865312,
Test,Visual_Stimuli/D_Down.png,Visual_Stimuli/T_Up.png,j,Incongruent,Congruent,,,,,,,,,,,,,0,5,5,5,,,,,,,,,,,,,,,,,,,,,,,,,,,,,,,,,,,,,,,,,,,,,,,,,,,,,,,,,,0.013310299999830022,586.3041663,586.3372731999999,586.4373909,587.2375035000001,587.3703631,588.8369669,None,0,J,True,516.4539999998397,0.5129516999998032,1.4460341999999855,493,548584,549516,550009,Correct,588.8369669,589.0369459,,,,,,,,,,,,,,,,,,,,,,,,,,,,,,,,,,,,,90000,,,,2022-09-14_09h48.37.147,Prime-Probe,2022.2.4,60.02523460865312,
Test,Visual_Stimuli/D_Left.png,Visual_Stimuli/T_Right.png,g,Incongruent,Incongruent,,,,,,,,,,,,,0,6,6,6,,,,,,,,,,,,,,,,,,,,,,,,,,,,,,,,,,,,,,,,,,,,,,,,,,,,,,,,,,0.012368299999934607,589.5037435999999,589.5369577,589.6369931,590.4371829,590.5703724000001,592.0364896,None,0,G,True,416.4100000000417,0.5126313999999184,1.4455391999997573,395,551782,552716,553111,Correct,592.0364896,592.2365177,,,,,,,,,,,,,,,,,,,,,,,,,,,,,,,,,,,,,90000,,,,2022-09-14_09h48.37.147,Prime-Probe,2022.2.4,60.02523460865312,
Test,Visual_Stimuli/D_Down.png,Visual_Stimuli/T_Up.png,j,Incongruent,Incongruent,,,,,,,,,,,,,0,7,7,7,,,,,,,,,,,,,,,,,,,,,,,,,,,,,,,,,,,,,,,,,,,,,,,,,,,,,,,,,,0.011892299999772149,592.7034752999999,592.7367794,592.8363671999999,593.6367076,593.7695087999999,595.2363380999999,None,0,J,True,516.452500000014,0.5125485999997181,1.4451732999998512,485,554982,555915,556400,Correct,595.2363380999999,595.4361603000001,,,,,,,,,,,,,,,,,,,,,,,,,,,,,,,,,,,,,90000,,,,2022-09-14_09h48.37.147,Prime-Probe,2022.2.4,60.02523460865312,
Test,Visual_Stimuli/D_Right.png,Visual_Stimuli/T_Left.png,f,Incongruent,Incongruent,,,,,,,,,,,,,0,8,8,8,,,,,,,,,,,,,,,,,,,,,,,,,,,,,,,,,,,,,,,,,,,,,,,,,,,,,,,,,,0.011584399999719608,595.90306,595.9362742,596.0364739,596.8363298,596.9692856,598.4361124000001,None,0,F,True,482.9577000000427,0.511931599999798,1.4448916999997437,449,558182,559115,559564,Correct,598.4361124000001,598.636009,,,,,,,,,,,,,,,,,,,,,,,,,,,,,,,,,,,,,90000,,,,2022-09-14_09h48.37.147,Prime-Probe,2022.2.4,60.02523460865312,
Test,Visual_Stimuli/N_Vert.png,Visual_Stimuli/T_Down.png,n,Neutral,Incongruent,,,,,,,,,,,,,0,9,9,9,,,,,,,,,,,,,,,,,,,,,,,,,,,,,,,,,,,,,,,,,,,,,,,,,,,,,,,,,,0.011392999999770836,599.1026504,599.1359688000001,599.2357141000001,600.0360523,600.1688891,601.6353508999999,None,0,N,True,432.97800000004827,0.5117433999996592,1.4444834999997056,409,561381,562315,562724,Correct,601.6353508999999,601.8354929000001,,,,,,,,,,,,,,,,,,,,,,,,,,,,,,,,,,,,,90000,,,,2022-09-14_09h48.37.147,Prime-Probe,2022.2.4,60.02523460865312,
Test,Visual_Stimuli/N_Horiz.png,Visual_Stimuli/T_Left.png,f,Neutral,Neutral,,,,,,,,,,,,,0,10,10,10,,,,,,,,,,,,,,,,,,,,,,,,,,,,,,,,,,,,,,,,,,,,,,,,,,,,,,,,,,0.01086789999976645,602.3025815,602.3357534999999,602.435323,603.2355667999999,603.3686180000001,604.8349353,None,0,F,True,383.3118000000013,0.5115215999996963,1.4440840999995999,359,564581,565513,565872,Correct,604.8349353,605.0352558999999,,,,,,,,,,,,,,,,,,,,,,,,,,,,,,,,,,,,,90000,,,,2022-09-14_09h48.37.147,Prime-Probe,2022.2.4,60.02523460865312,
Test,Visual_Stimuli/N_Vert.png,Visual_Stimuli/T_Down.png,n,Neutral,Neutral,,,,,,,,,,,,,0,11,11,11,,,,,,,,,,,,,,,,,,,,,,,,,,,,,,,,,,,,,,,,,,,,,,,,,,,,,,,,,,0.010777299999517709,605.5019151,605.53525,605.6351621,606.4352548999999,606.5681894,608.0346357,None,0,N,True,433.0224999998791,0.5109762999995837,1.4437095999996927,400,567781,568714,569114,Correct,608.0346357,608.2352655999999,,,,,,,,,,,,,,,,,,,,,,,,,,,,,,,,,,,,,90000,,,,2022-09-14_09h48.37.147,Prime-Probe,2022.2.4,60.02523460865312,
Test,Visual_Stimuli/D_Right.png,Visual_Stimuli/T_Left.png,f,Incongruent,Neutral,,,,,,,,,,,,,0,12,12,12,,,,,,,,,,,,,,,,,,,,,,,,,,,,,,,,,,,,,,,,,,,,,,,,,,,,,,,,,,0.010688999999501902,608.7015163,608.7348247000001,608.8345868,609.6348862000001,609.7677537999999,611.2342898999999,None,0,F,True,366.62249999994856,0.5104796999994505,1.4435411999995722,341,570980,571914,572255,Correct,611.2342898999999,611.4342125,,,,,,,,,,,,,,,,,,,,,,,,,,,,,,,,,,,,,90000,,,,2022-09-14_09h48.37.147,Prime-Probe,2022.2.4,60.02523460865312,
Test,Visual_Stimuli/D_Up.png,Visual_Stimuli/T_Up.png,j,Congruent,Incongruent,,,,,,,,,,,,,0,13,13,13,,,,,,,,,,,,,,,,,,,,,,,,,,,,,,,,,,,,,,,,,,,,,,,,,,,,,,,,,,0.009638099999619953,611.9012445,611.9348011999999,612.0342968000001,612.8343606,612.9673821,614.4339205,None,0,J,True,383.42869999996765,0.5104678999994121,1.4431780999996136,355,574180,575112,575467,Correct,614.4339205,614.6341392,,,,,,,,,,,,,,,,,,,,,,,,,,,,,,,,,,,,,90000,,,,2022-09-14_09h48.37.147,Prime-Probe,2022.2.4,60.02523460865312,
Test,Visual_Stimuli/D_Right.png,Visual_Stimuli/T_Left.png,f,Incongruent,Congruent,,,,,,,,,,,,,0,14,14,14,,,,,,,,,,,,,,,,,,,,,,,,,,,,,,,,,,,,,,,,,,,,,,,,,,,,,,,,,,0.009538899999370187,615.1007699,615.1340343,615.2337317,616.0341757,616.1670037,617.6336081999999,None,0,F,True,466.42100000008213,0.5097708999994666,1.4426102999993873,433,577378,578313,578746,Correct,617.6336081999999,617.8336264000001,,,,,,,,,,,,,,,,,,,,,,,,,,,,,,,,,,,,,90000,,,,2022-09-14_09h48.37.147,Prime-Probe,2022.2.4,60.02523460865312,
Test,Visual_Stimuli/N_Vert.png,Visual_Stimuli/T_Up.png,j,Neutral,Incongruent,,,,,,,,,,,,,0,15,15,15,,,,,,,,,,,,,,,,,,,,,,,,,,,,,,,,,,,,,,,,,,,,,,,,,,,,,,,,,,0.00905459999944469,618.3004709999999,618.3337044000001,618.4336619,619.2336452000001,619.3666360999999,620.8331296,None,0,J,True,449.4684999999663,0.5093868999995266,1.4425115999995342,427,580578,581513,581940,Correct,620.8331296,621.0331269,,,,,,,,,,,,,,,,,,,,,,,,,,,,,,,,,,,,,90000,,,,2022-09-14_09h48.37.147,Prime-Probe,2022.2.4,60.02523460865312,
Test,Visual_Stimuli/D_Right.png,Visual_Stimuli/T_Left.png,f,Incongruent,Neutral,,,,,,,,,,,,,0,16,16,16,,,,,,,,,,,,,,,,,,,,,,,,,,,,,,,,,,,,,,,,,,,,,,,,,,,,,,,,,,0.008502299999463503,621.500132,621.5333019000001,621.6330491,622.4335052,622.5662731000001,624.0327752,None,0,F,True,366.6086999999152,0.5090875999994751,1.4418834999994488,336,583779,584711,585047,Correct,624.0327752,624.232926,,,,,,,,,,,,,,,,,,,,,,,,,,,,,,,,,,,,,90000,,,,2022-09-14_09h48.37.147,Prime-Probe,2022.2.4,60.02523460865312,
Test,Visual_Stimuli/D_Down.png,Visual_Stimuli/T_Down.png,n,Congruent,Incongruent,,,,,,,,,,,,,0,17,17,17,,,,,,,,,,,,,,,,,,,,,,,,,,,,,,,,,,,,,,,,,,,,,,,,,,,,,,,,,,0.008301999999275722,624.6996717000001,624.7330529,624.8328677000001,625.6330875,625.7658556,627.2325354999999,None,0,N,True,432.829300000094,0.5088106999992306,1.4416703999993388,403,586977,587911,588314,Correct,627.2325354999999,627.4324828,,,,,,,,,,,,,,,,,,,,,,,,,,,,,,,,,,,,,90000,,,,2022-09-14_09h48.37.147,Prime-Probe,2022.2.4,60.02523460865312,
Test,Visual_Stimuli/D_Left.png,Visual_Stimuli/T_Right.png,g,Incongruent,Congruent,,,,,,,,,,,,,0,18,18,18,,,,,,,,,,,,,,,,,,,,,,,,,,,,,,,,,,,,,,,,,,,,,,,,,,,,,,,,,,0.007858199999191129,627.8992634,627.9327373,628.0323004999999,628.8327363,628.9656893,630.4325344,None,0,G,True,532.6144000000568,0.508440099999234,1.441555399999288,511,590177,591109,591620,Correct,630.4325344,630.6320471,,,,,,,,,,,,,,,,,,,,,,,,,,,,,,,,,,,,,90000,,,,2022-09-14_09h48.37.147,Prime-Probe,2022.2.4,60.02523460865312,
Test,Visual_Stimuli/D_Up.png,Visual_Stimuli/T_Up.png,j,Congruent,Incongruent,,,,,,,,,,,,,0,19,19,19,,,,,,,,,,,,,,,,,,,,,,,,,,,,,,,,,,,,,,,,,,,,,,,,,,,,,,,,,,0.007424899999250556,631.0989455,631.1322804,631.2320404000001,632.0321167000001,632.1652115999999,633.6318139000001,None,0,J,True,399.67509999996764,0.5079573999992135,1.4409695999993346,368,593376,594309,594677,Correct,633.6318139000001,633.8317811999999,,,,,,,,,,,,,,,,,,,,,,,,,,,,,,,,,,,,,90000,,,,2022-09-14_09h48.37.147,Prime-Probe,2022.2.4,60.02523460865312,
Test,Visual_Stimuli/N_Horiz.png,Visual_Stimuli/T_Left.png,f,Neutral,Congruent,,,,,,,,,,,,,0,20,20,20,,,,,,,,,,,,,,,,,,,,,,,,,,,,,,,,,,,,,,,,,,,,,,,,,,,,,,,,,,0.007154799999170791,634.2986797,634.3320619,634.4316202000001,635.2319695,635.3652271,636.8313635999999,None,0,F,True,366.28879999989294,0.5077686999991329,1.4405862999992678,331,596576,597508,597839,Correct,636.8313635999999,637.0313911,,,,,,,,,,,,,,,,,,,,,,,,,,,,,,,,,,,,,90000,,,,2022-09-14_09h48.37.147,Prime-Probe,2022.2.4,60.02523460865312,
Test,Visual_Stimuli/D_Down.png,Visual_Stimuli/T_Down.png,n,Congruent,Neutral,,,,,,,,,,,,,0,21,21,21,,,,,,,,,,,,,,,,,,,,,,,,,,,,,,,,,,,,,,,,,,,,,,,,,,,,,,,,,,0.006781499999078733,637.4982839999999,637.5313937,637.6311996000001,638.4316295,638.5644569,640.0308418999999,None,0,N,True,516.2484999998469,0.5071095999992394,1.4401803999992353,482,599776,600708,601190,Correct,640.0308418999999,640.2310120000001,,,,,,,,,,,,,,,,,,,,,,,,,,,,,,,,,,,,,90000,,,,2022-09-14_09h48.37.147,Prime-Probe,2022.2.4,60.02523460865312,
Test,Visual_Stimuli/D_Left.png,Visual_Stimuli/T_Right.png,g,Incongruent,Congruent,,,,,,,,,,,,,0,22,22,22,,,,,,,,,,,,,,,,,,,,,,,,,,,,,,,,,,,,,,,,,,,,,,,,,,,,,,,,,,0.006405899999208486,640.6978177,640.7311383,640.8308696,641.6313051000001,641.7641009,643.2306821000001,None,0,G,True,466.4990999999645,0.5068596999990405,1.439565499999162,436,602975,603908,604344,Correct,643.2306821000001,643.4304883000001,,,,,,,,,,,,,,,,,,,,,,,,,,,,,,,,,,,,,90000,,,,2022-09-14_09h48.37.147,Prime-Probe,2022.2.4,60.02523460865312,
Test,Visual_Stimuli/D_Up.png,Visual_Stimuli/T_Down.png,n,Incongruent,Incongruent,,,,,,,,,,,,,0,23,23,23,,,,,,,,,,,,,,,,,,,,,,,,,,,,,,,,,,,,,,,,,,,,,,,,,,,,,,,,,,0.005862299999080278,643.8974472000001,643.9307749000001,644.0305262999999,644.8309704,644.9638446,646.4302374,None,0,N,True,399.2696000000251,0.5064404999991439,1.4395890999990115,366,606175,607106,607472,Correct,646.4302374,646.6302145999999,,,,,,,,,,,,,,,,,,,,,,,,,,,,,,,,,,,,,90000,,,,2022-09-14_09h48.37.147,Prime-Probe,2022.2.4,60.02523460865312,
Test,Visual_Stimuli/D_Left.png,Visual_Stimuli/T_Right.png,g,Incongruent,Incongruent,,,,,,,,,,,,,0,24,24,24,,,,,,,,,,,,,,,,,,,,,,,,,,,,,,,,,,,,,,,,,,,,,,,,,,,,,,,,,,0.00564249999911226,647.0970886000001,647.1303429999999,647.2303788,648.0302909000001,648.1634305000001,649.6297828999999,None,0,G,True,432.8316999999515,0.5060553999990134,1.4390971999989688,399,609375,610307,610706,Correct,649.6297828999999,649.8298516000001,,,,,,,,,,,,,,,,,,,,,,,,,,,,,,,,,,,,,90000,,,,2022-09-14_09h48.37.147,Prime-Probe,2022.2.4,60.02523460865312,
Test,Visual_Stimuli/D_Down.png,Visual_Stimuli/T_Down.png,n,Congruent,Incongruent,,,,,,,,,,,,,0,25,25,25,,,,,,,,,,,,,,,,,,,,,,,,,,,,,,,,,,,,,,,,,,,,,,,,,,,,,,,,,,0.005260299999008566,650.2968225999999,650.3298779999999,650.429808,651.2301702000001,651.3630690000001,652.8294125000001,None,0,N,True,400.0691999999617,0.5055920999989212,1.4383860999989793,379,612573,613505,613884,Correct,652.8294125000001,653.0294994,,,,,,,,,,,,,,,,,,,,,,,,,,,,,,,,,,,,,90000,,,,2022-09-14_09h48.37.147,Prime-Probe,2022.2.4,60.02523460865312,
Test,Visual_Stimuli/D_Right.png,Visual_Stimuli/T_Right.png,g,Congruent,Congruent,,,,,,,,,,,,,0,26,26,26,,,,,,,,,,,,,,,,,,,,,,,,,,,,,,,,,,,,,,,,,,,,,,,,,,,,,,,,,,0.004891199998837692,653.4963750999999,653.5297027,653.6293562,654.4294865,654.5626672,656.0291212999999,None,0,G,True,383.05800000011914,0.5055260999988604,1.4383406999988892,350,615774,616705,617055,Correct,656.0291212999999,656.2291242,,,,,,,,,,,,,,,,,,,,,,,,,,,,,,,,,,,,,90000,,,,2022-09-14_09h48.37.147,Prime-Probe,2022.2.4,60.02523460865312,
Test,Visual_Stimuli/D_Up.png,Visual_Stimuli/T_Up.png,j,Congruent,Congruent,,,,,,,,,,,,,0,27,27,27,,,,,,,,,,,,,,,,,,,,,,,,,,,,,,,,,,,,,,,,,,,,,,,,,,,,,,,,,,0.004561999998941246,656.6960929,656.7292137000001,656.8296552,657.6295149000001,657.7621923,659.2294599,None,0,J,True,499.2554000000382,0.5049197999987882,1.438364799998908,467,618972,619906,620373,Correct,659.2294599,659.4291978,,,,,,,,,,,,,,,,,,,,,,,,,,,,,,,,,,,,,90000,,,,2022-09-14_09h48.37.147,Prime-Probe,2022.2.4,60.02523460865312,
Test,Visual_Stimuli/D_Left.png,Visual_Stimuli/T_Left.png,f,Congruent,Congruent,,,,,,,,,,,,,0,28,28,28,,,,,,,,,,,,,,,,,,,,,,,,,,,,,,,,,,,,,,,,,,,,,,,,,,,,,,,,,,0.004606999998941319,659.895948,659.9288095999999,660.0285947000001,660.828836,660.9619087,662.4282961,None,0,F,True,332.9324999999699,0.504489699998885,1.4375998999987587,308,622172,623104,623412,Correct,662.4282961,662.6283279999999,,,,,,,,,,,,,,,,,,,,,,,,,,,,,,,,,,,,,90000,,,,2022-09-14_09h48.37.147,Prime-Probe,2022.2.4,60.02523460865312,
Test,Visual_Stimuli/N_Vert.png,Visual_Stimuli/T_Up.png,j,Neutral,Congruent,,,,,,,,,,,,,0,29,29,29,,,,,,,,,,,,,,,,,,,,,,,,,,,,,,,,,,,,,,,,,,,,,,,,,,,,,,,,,,0.0037032999987332005,663.0953383,663.1285024,663.2282847,664.0284479000001,664.1615621,665.6279197,None,0,J,True,483.1100999999762,0.5041276999988895,1.4372561999987283,452,625373,626304,626756,Correct,665.6279197,665.8280305,,,,,,,,,,,,,,,,,,,,,,,,,,,,,,,,,,,,,90000,,,,2022-09-14_09h48.37.147,Prime-Probe,2022.2.4,60.02523460865312,
Test,Visual_Stimuli/D_Left.png,Visual_Stimuli/T_Left.png,f,Congruent,Neutral,,,,,,,,,,,,,0,30,30,30,,,,,,,,,,,,,,,,,,,,,,,,,,,,,,,,,,,,,,,,,,,,,,,,,,,,,,,,,,0.0034060999987559626,666.2949319,666.3281134,666.4280058999999,667.2282257999999,667.3611944,668.8276002000001,None,0,F,True,366.3269000001037,0.5037790999988374,1.4367697999987286,332,628570,629504,629836,Correct,668.8276002000001,669.0276345000001,,,,,,,,,,,,,,,,,,,,,,,,,,,,,,,,,,,,,90000,,,,2022-09-14_09h48.37.147,Prime-Probe,2022.2.4,60.02523460865312,
Test,Visual_Stimuli/D_Up.png,Visual_Stimuli/T_Up.png,j,Congruent,Congruent,,,,,,,,,,,,,0,31,31,31,,,,,,,,,,,,,,,,,,,,,,,,,,,,,,,,,,,,,,,,,,,,,,,,,,,,,,,,,,0.0030082999987826042,669.494609,669.5279214999999,669.6275452000001,670.4276986000001,670.5608656999999,672.0271859000001,None,0,J,True,333.2373999999163,0.5036506999986159,1.436503799998718,309,631770,632703,633012,Correct,672.0271859000001,672.2275375,,,,,,,,,,,,,,,,,,,,,,,,,,,,,,,,,,,,,90000,,,,2022-09-14_09h48.37.147,Prime-Probe,2022.2.4,60.02523460865312,
Test,Visual_Stimuli/D_Left.png,Visual_Stimuli/T_Right.png,g,Incongruent,Congruent,,,,,,,,,,,,,0,32,32,32,,,,,,,,,,,,,,,,,,,,,,,,,,,,,,,,,,,,,,,,,,,,,,,,,,,,,,,,,,0.002953999998680956,672.6941568999999,672.7275206,672.8271291,673.627386,673.7603846999999,675.2269399,None,0,G,True,766.2542999999005,0.5032535999987431,1.4361666999986937,737,634969,635903,636640,Correct,675.2269399,675.4268117,,,,,,,,,,,,,,,,,,,,,,,,,,,,,,,,,,,,,90000,,,,2022-09-14_09h48.37.147,Prime-Probe,2022.2.4,60.02523460865312,
Test,Visual_Stimuli/N_Vert.png,Visual_Stimuli/T_Down.png,n,Neutral,Incongruent,,,,,,,,,,,,,0,33,33,33,,,,,,,,,,,,,,,,,,,,,,,,,,,,,,,,,,,,,,,,,,,,,,,,,,,,,,,,,,0.002208699998618613,675.8937419,675.9270587,676.0269801999999,676.8270905,676.9599730000001,678.4264558000001,None,0,N,True,433.17339999998694,0.50280199999861,1.435598099998515,409,638169,639102,639511,Correct,678.4264558000001,678.6264597,,,,,,,,,,,,,,,,,,,,,,,,,,,,,,,,,,,,,90000,,,,2022-09-14_09h48.37.147,Prime-Probe,2022.2.4,60.02523460865312,
Test,Visual_Stimuli/D_Left.png,Visual_Stimuli/T_Left.png,f,Congruent,Neutral,,,,,,,,,,,,,0,34,34,34,,,,,,,,,,,,,,,,,,,,,,,,,,,,,,,,,,,,,,,,,,,,,,,,,,,,,,,,,,0.0018752999985736096,679.0934251,679.1268033,679.2265151,680.0267269,680.159736,681.6260911999999,None,0,F,True,333.1670000000031,0.5024832999986302,1.4352322999984608,301,641369,642302,642603,Correct,681.6260911999999,681.826259,,,,,,,,,,,,,,,,,,,,,,,,,,,,,,,,,,,,,90000,,,,2022-09-14_09h48.37.147,Prime-Probe,2022.2.4,60.02523460865312,
Test,Visual_Stimuli/D_Up.png,Visual_Stimuli/T_Down.png,n,Incongruent,Congruent,,,,,,,,,,,,,0,35,35,35,,,,,,,,,,,,,,,,,,,,,,,,,,,,,,,,,,,,,,,,,,,,,,,,,,,,,,,,,,0.0016548999985843693,682.2938826000001,682.3262089000001,682.4261115999999,683.2266699999999,683.3593754,684.8258588,None,0,N,True,482.8244000000268,0.50187309999842,1.4350109999984397,456,644568,645502,645958,Correct,684.8258588,685.0258305000001,,,,,,,,,,,,,,,,,,,,,,,,,,,,,,,,,,,,,90000,,,,2022-09-14_09h48.37.147,Prime-Probe,2022.2.4,60.02523460865312,
Test,Visual_Stimuli/D_Right.png,Visual_Stimuli/T_Right.png,g,Congruent,Incongruent,,,,,,,,,,,,,0,36,36,36,,,,,,,,,,,,,,,,,,,,,,,,,,,,,,,,,,,,,,,,,,,,,,,,,,,,,,,,,,0.0012044999984937022,685.4927133,685.5258032,685.6256019000001,686.4264691,686.5588693999999,688.0256969999999,None,0,G,True,399.87459999997554,0.5014610999985507,1.4344411999984459,372,647768,648700,649072,Correct,688.0256969999999,688.2254446000001,,,,,,,,,,,,,,,,,,,,,,,,,,,,,,,,,,,,,90000,,,,2022-09-14_09h48.37.147,Prime-Probe,2022.2.4,60.02523460865312,
Test,Visual_Stimuli/N_Vert.png,Visual_Stimuli/T_Up.png,j,Neutral,Congruent,,,,,,,,,,,,,0,37,37,37,,,,,,,,,,,,,,,,,,,,,,,,,,,,,,,,,,,,,,,,,,,,,,,,,,,,,,,,,,0.0008373999983177782,688.6922456000001,688.7255816999999,688.8254467999999,689.6255837,689.7586911,691.2250527,None,0,G,False,383.1171000001632,0.5013375999983509,1.434113999998317,351,650966,651901,652252,Incorrect,691.2250527,691.4250656,,,,,,,,,,,,,,,,,,,,,,,,,,,,,,,,,,,,,90000,,,,2022-09-14_09h48.37.147,Prime-Probe,2022.2.4,60.02523460865312,
Test,Visual_Stimuli/D_Right.png,Visual_Stimuli/T_Left.png,f,Incongruent,Neutral,,,,,,,,,,,,,0,38,38,38,,,,,,,,,,,,,,,,,,,,,,,,,,,,,,,,,,,,,,,,,,,,,,,,,,,,,,,,,,0.0004590999983520305,691.89189,691.9255082999999,692.0250921,692.8252441000001,692.9582606,694.4246018,None,0,F,True,433.36269999986143,0.5011546999983238,1.433754699998417,413,654166,655099,655512,Correct,694.4246018,694.6246651,,,,,,,,,,,,,,,,,,,,,,,,,,,,,,,,,,,,,90000,,,,2022-09-14_09h48.37.147,Prime-Probe,2022.2.4,60.02523460865312,
Test,Visual_Stimuli/D_Up.png,Visual_Stimuli/T_Down.png,n,Incongruent,Incongruent,,,,,,,,,,,,,0,39,39,39,,,,,,,,,,,,,,,,,,,,,,,,,,,,,,,,,,,,,,,,,,,,,,,,,,,,,,,,,,0.00010069999825645937,695.0916972000001,695.1248309000001,695.2246125,696.0247554000001,696.1579229,697.6243960999999,None,0,N,True,399.75649999996676,0.5005595999982688,1.4334002999983113,368,657367,658299,658667,Correct,697.6243960999999,697.8243338999999,,,,,,,,,,,,,,,,,,,,,,,,,,,,,,,,,,,,,90000,,,,2022-09-14_09h48.37.147,Prime-Probe,2022.2.4,60.02523460865312,
Test,Visual_Stimuli/N_Horiz.png,Visual_Stimuli/T_Right.png,g,Neutral,Incongruent,,,,,,,,,,,,,0,40,40,40,,,,,,,,,,,,,,,,,,,,,,,,,,,,,,,,,,,,,,,,,,,,,,,,,,,,,,,,,,-0.00029290000179571507,698.2913560000001,698.3245252,698.4242908,699.2244609999999,699.3574165000001,700.8240768,None,0,G,True,599.759499999891,0.500167599998349,1.4332716999983859,570,660565,661500,662070,Correct,700.8240768,701.0239498,,,,,,,,,,,,,,,,,,,,,,,,,,,,,,,,,,,,,90000,,,,2022-09-14_09h48.37.147,Prime-Probe,2022.2.4,60.02523460865312,
Test,Visual_Stimuli/D_Down.png,Visual_Stimuli/T_Up.png,j,Incongruent,Neutral,,,,,,,,,,,,,0,41,41,41,,,,,,,,,,,,,,,,,,,,,,,,,,,,,,,,,,,,,,,,,,,,,,,,,,,,,,,,,,-0.0006253000017295562,701.4908684000001,701.524012,701.623825,702.4241028,702.557222,704.0235251,None,0,J,True,432.91359999989254,0.5161864999981844,1.4494958999982828,412,663782,664715,665127,Correct,704.0403233999999,704.2402332,,,,,,,,,,,,,,,,,,,,,,,,,,,,,,,,,,,,,90000,,,,2022-09-14_09h48.37.147,Prime-Probe,2022.2.4,60.02523460865312,
Test,Visual_Stimuli/D_Left.png,Visual_Stimuli/T_Right.png,g,Incongruent,Incongruent,,,,,,,,,,,,,0,42,42,42,,,,,,,,,,,,,,,,,,,,,,,,,,,,,,,,,,,,,,,,,,,,,,,,,,,,,,,,,,-6.70000017635175e-05,704.7070333,704.7237813999999,704.8401210999999,705.6404169000001,705.7734692,707.223353,None,0,G,True,550.0758000000587,0.5157530999981645,1.4489227999981722,529,666982,667915,668444,Correct,707.2398171000001,707.4399998,,,,,,,,,,,,,,,,,,,,,,,,,,,,,,,,,,,,,90000,,,,2022-09-14_09h48.37.147,Prime-Probe,2022.2.4,60.02523460865312,
Test,Visual_Stimuli/N_Vert.png,Visual_Stimuli/T_Up.png,j,Neutral,Incongruent,,,,,,,,,,,,,0,43,43,43,,,,,,,,,,,,,,,,,,,,,,,,,,,,,,,,,,,,,,,,,,,,,,,,,,,,,,,,,,-0.0005936000018209597,707.9068818,707.9399236999999,708.0397423999999,708.8399949999999,708.9730653,710.4395029000001,None,0,J,True,599.7225000000981,0.5157568999982232,1.448660099998051,563,670181,671115,671678,Correct,710.4395029000001,710.6395219,,,,,,,,,,,,,,,,,,,,,,,,,,,,,,,,,,,,,90000,,,,2022-09-14_09h48.37.147,Prime-Probe,2022.2.4,60.02523460865312,
Test,Visual_Stimuli/D_Right.png,Visual_Stimuli/T_Left.png,f,Incongruent,Neutral,,,,,,,,,,,,,0,44,44,44,,,,,,,,,,,,,,,,,,,,,,,,,,,,,,,,,,,,,,,,,,,,,,,,,,,,,,,,,,-0.0007021000019449275,711.106386,711.1395738,711.2394051,712.0395801999999,712.1726474999999,713.6391182000001,None,0,F,True,382.9134999998587,0.5154082999981711,1.4483518999982152,354,673381,674314,674668,Correct,713.6391182000001,713.8393729999999,,,,,,,,,,,,,,,,,,,,,,,,,,,,,,,,,,,,,90000,,,,2022-09-14_09h48.37.147,Prime-Probe,2022.2.4,60.02523460865312,
Test,Visual_Stimuli/D_Down.png,Visual_Stimuli/T_Up.png,j,Incongruent,Incongruent,,,,,,,,,,,,,0,45,45,45,,,,,,,,,,,,,,,,,,,,,,,,,,,,,,,,,,,,,,,,,,,,,,,,,,,,,,,,,,-0.0005086000019218773,714.3059988000001,714.3394721999999,714.4390262999999,715.2391690999999,715.3723011000001,716.8388676999999,None,0,J,True,466.3669999999911,0.5151768999980959,1.4478355999981432,429,676581,677514,677943,Correct,716.8388676999999,717.0386434999999,,,,,,,,,,,,,,,,,,,,,,,,,,,,,,,,,,,,,90000,,,,2022-09-14_09h48.37.147,Prime-Probe,2022.2.4,60.02523460865312,
Test,Visual_Stimuli/D_Left.png,Visual_Stimuli/T_Left.png,f,Congruent,Incongruent,,,,,,,,,,,,,0,46,46,46,,,,,,,,,,,,,,,,,,,,,,,,,,,,,,,,,,,,,,,,,,,,,,,,,,,,,,,,,,0.01401979999809555,717.5057077,717.5388223000001,717.6388837999999,718.4389752000001,718.5719390999999,720.0383126,None,0,F,True,365.85599999989427,0.5144882999979927,1.4480400999980247,339,679780,680714,681053,Correct,720.0383126,720.2383466,,,,,,,,,,,,,,,,,,,,,,,,,,,,,,,,,,,,,90000,,,,2022-09-14_09h48.37.147,Prime-Probe,2022.2.4,60.02523460865312,
Test,Visual_Stimuli/D_Up.png,Visual_Stimuli/T_Up.png,j,Congruent,Congruent,,,,,,,,,,,,,0,47,47,47,,,,,,,,,,,,,,,,,,,,,,,,,,,,,,,,,,,,,,,,,,,,,,,,,,,,,,,,,,0.01372569999807638,720.7053193999999,720.7385476000001,720.8383540000001,721.6388794999999,721.7716035,723.2379500999999,None,0,J,True,399.82329999998,0.5142582999978913,1.4470704999980626,367,682980,683912,684279,Correct,723.2379500999999,723.4379587,,,,,,,,,,,,,,,,,,,,,,,,,,,,,,,,,,,,,90000,,,,2022-09-14_09h48.37.147,Prime-Probe,2022.2.4,60.02523460865312,
Test,Visual_Stimuli/D_Right.png,Visual_Stimuli/T_Right.png,g,Congruent,Congruent,,,,,,,,,,,,,0,48,48,48,,,,,,,,,,,,,,,,,,,,,,,,,,,,,,,,,,,,,,,,,,,,,,,,,,,,,,,,,,0.013387599997940924,723.9049729,723.9384081,724.0378809,724.8383854,724.9711222,726.4377786000001,None,0,G,True,1149.5730999999978,0.5141191999978219,1.4468893999978718,1114,686178,687113,688227,TooSlow,726.4377786000001,726.637756,,,,,,,,,,,,,,,,,,,,,,,,,,,,,,,,,,,,,90000,,,,2022-09-14_09h48.37.147,Prime-Probe,2022.2.4,60.02523460865312,
Test,Visual_Stimuli/D_Down.png,Visual_Stimuli/T_Up.png,j,Incongruent,Congruent,,,,,,,,,,,,,0,49,49,49,,,,,,,,,,,,,,,,,,,,,,,,,,,,,,,,,,,,,,,,,,,,,,,,,,,,,,,,,,0.013132299997778318,727.1046384,727.1378155000001,727.2374682999999,728.0380303000001,728.1708387,729.6372259999999,None,0,J,True,316.701299999977,0.5135211999979674,1.44633279999789,290,689378,690311,690601,Correct,729.6372259999999,729.8372522000001,,,,,,,,,,,,,,,,,,,,,,,,,,,,,,,,,,,,,90000,,,,2022-09-14_09h48.37.147,Prime-Probe,2022.2.4,60.02523460865312,
Test,Visual_Stimuli/D_Right.png,Visual_Stimuli/T_Right.png,g,Congruent,Incongruent,,,,,,,,,,,,,0,50,50,50,,,,,,,,,,,,,,,,,,,,,,,,,,,,,,,,,,,,,,,,,,,,,,,,,,,,,,,,,,0.012644799997815426,730.3044845000001,730.3375864000001,730.4372201,731.2373639000001,731.3703764,732.8369134999999,None,0,G,True,416.3665000000947,0.5133571999979267,1.4460224999977527,385,692579,693511,693896,Correct,732.8369134999999,733.0368124,,,,,,,,,,,,,,,,,,,,,,,,,,,,,,,,,,,,,90000,,,,2022-09-14_09h48.37.147,Prime-Probe,2022.2.4,60.02523460865312,
Test,Visual_Stimuli/N_Vert.png,Visual_Stimuli/T_Down.png,n,Neutral,Congruent,,,,,,,,,,,,,0,51,51,51,,,,,,,,,,,,,,,,,,,,,,,,,,,,,,,,,,,,,,,,,,,,,,,,,,,,,,,,,,0.012187899997798013,733.5039129999999,733.5372630999999,733.6369771000001,734.4371579,734.5699708999999,736.0364871,None,0,N,True,632.9229000000396,0.5129831999977341,1.4457547999977578,609,695777,696712,697321,Correct,736.0364871,736.2364131,,,,,,,,,,,,,,,,,,,,,,,,,,,,,,,,,,,,,90000,,,,2022-09-14_09h48.37.147,Prime-Probe,2022.2.4,60.02523460865312,
Test,Visual_Stimuli/N_Horiz.png,Visual_Stimuli/T_Right.png,g,Neutral,Neutral,,,,,,,,,,,,,0,52,52,52,,,,,,,,,,,,,,,,,,,,,,,,,,,,,,,,,,,,,,,,,,,,,,,,,,,,,,,,,,0.011792699997840828,736.7035513,736.7368313999999,736.8363868,737.6368354,737.7696566999999,739.2361408999999,None,0,G,True,666.3974999999027,0.5124892999976964,1.445246099997803,644,698977,699909,700553,Correct,739.2361408999999,739.4361932,,,,,,,,,,,,,,,,,,,,,,,,,,,,,,,,,,,,,90000,,,,2022-09-14_09h48.37.147,Prime-Probe,2022.2.4,60.02523460865312,
Test,Visual_Stimuli/D_Up.png,Visual_Stimuli/T_Down.png,n,Incongruent,Neutral,,,,,,,,,,,,,0,53,53,53,,,,,,,,,,,,,,,,,,,,,,,,,,,,,,,,,,,,,,,,,,,,,,,,,,,,,,,,,,0.011584699997683856,739.9031254,739.9362635000001,740.0360715999999,740.8363011,740.9694556999999,742.4357045999999,None,0,N,True,416.18369999991955,0.5118952999976045,1.4452219999977842,386,702176,703109,703495,Correct,742.4357045999999,742.6358723,,,,,,,,,,,,,,,,,,,,,,,,,,,,,,,,,,,,,90000,,,,2022-09-14_09h48.37.147,Prime-Probe,2022.2.4,60.02523460865312,
Test,Visual_Stimuli/N_Horiz.png,Visual_Stimuli/T_Left.png,f,Neutral,Incongruent,,,,,,,,,,,,,0,54,54,54,,,,,,,,,,,,,,,,,,,,,,,,,,,,,,,,,,,,,,,,,,,,,,,,,,,,,,,,,,0.011262699997587333,743.1028114,743.1360284000001,743.2356321000001,744.0366631999999,744.1689886,745.6354763,None,0,F,True,466.29779999989296,0.5117451999976765,1.4445451999977195,438,705376,706309,706747,Correct,745.6354763,745.8354204999999,,,,,,,,,,,,,,,,,,,,,,,,,,,,,,,,,,,,,90000,,,,2022-09-14_09h48.37.147,Prime-Probe,2022.2.4,60.02523460865312,
Test,Visual_Stimuli/D_Down.png,Visual_Stimuli/T_Down.png,n,Congruent,Neutral,,,,,,,,,,,,,0,55,55,55,,,,,,,,,,,,,,,,,,,,,,,,,,,,,,,,,,,,,,,,,,,,,,,,,,,,,,,,,,0.010806099997580532,746.3025687999999,746.3357133999999,746.4353970000001,747.2359858000001,747.36846,748.8350615,None,0,N,True,483.0742999999984,0.5113899999976184,1.4441101999975672,447,708576,709508,709955,Correct,748.8350615,749.0349910000001,,,,,,,,,,,,,,,,,,,,,,,,,,,,,,,,,,,,,90000,,,,2022-09-14_09h48.37.147,Prime-Probe,2022.2.4,60.02523460865312,
Test,Visual_Stimuli/D_Left.png,Visual_Stimuli/T_Left.png,f,Congruent,Congruent,,,,,,,,,,,,,0,56,56,56,,,,,,,,,,,,,,,,,,,,,,,,,,,,,,,,,,,,,,,,,,,,,,,,,,,,,,,,,,0.010370199997623786,749.5020146999999,749.5353619000001,749.63503,750.4355096,750.5682247000001,752.0345994999999,None,0,F,True,416.60349999983737,0.5110657999975956,1.4439408999976422,383,711774,712708,713091,Correct,752.0345994999999,752.2348056,,,,,,,,,,,,,,,,,,,,,,,,,,,,,,,,,,,,,90000,,,,2022-09-14_09h48.37.147,Prime-Probe,2022.2.4,60.02523460865312,
Test,Visual_Stimuli/D_Down.png,Visual_Stimuli/T_Up.png,j,Incongruent,Congruent,,,,,,,,,,,,,0,57,57,57,,,,,,,,,,,,,,,,,,,,,,,,,,,,,,,,,,,,,,,,,,,,,,,,,,,,,,,,,,0.010185799997543654,752.7016744000001,752.7353121,752.8350137000001,753.6346824999999,753.7678145000001,755.2342872,None,0,J,True,616.5340000000015,0.5113493999974708,1.4433978999975352,586,714975,715908,716494,Correct,755.2342872,755.4343586000001,,,,,,,,,,,,,,,,,,,,,,,,,,,,,,,,,,,,,90000,,,,2022-09-14_09h48.37.147,Prime-Probe,2022.2.4,60.02523460865312,
Test,Visual_Stimuli/N_Horiz.png,Visual_Stimuli/T_Right.png,g,Neutral,Incongruent,,,,,,,,,,,,,0,58,58,58,,,,,,,,,,,,,,,,,,,,,,,,,,,,,,,,,,,,,,,,,,,,,,,,,,,,,,,,,,0.009783899997501067,755.9012272000001,755.9346099999999,756.0342165999999,756.8344039,756.9674323,758.4340538,None,0,G,True,616.2323999999444,0.5103627999974378,1.4431811999975253,580,718175,719106,719686,Correct,758.4340538,758.6340630000001,,,,,,,,,,,,,,,,,,,,,,,,,,,,,,,,,,,,,90000,,,,2022-09-14_09h48.37.147,Prime-Probe,2022.2.4,60.02523460865312,
Test,Visual_Stimuli/D_Up.png,Visual_Stimuli/T_Down.png,n,Incongruent,Neutral,,,,,,,,,,,,,0,59,59,59,,,,,,,,,,,,,,,,,,,,,,,,,,,,,,,,,,,,,,,,,,,,,,,,,,,,,,,,,,0.00945329999740352,759.1008075000001,759.1341880000001,759.2339154,760.0342052,760.1670605,761.6337001,None,0,N,True,499.66440000002876,0.5099303999975291,1.4428182999974979,474,721373,722307,722781,Correct,761.6337001,761.8336043,,,,,,,,,,,,,,,,,,,,,,,,,,,,,,,,,,,,,90000,,,,2022-09-14_09h48.37.147,Prime-Probe,2022.2.4,60.02523460865312,
Test,Visual_Stimuli/N_Horiz.png,Visual_Stimuli/T_Right.png,g,Neutral,Incongruent,,,,,,,,,,,,,0,60,60,60,,,,,,,,,,,,,,,,,,,,,,,,,,,,,,,,,,,,,,,,,,,,,,,,,,,,,,,,,,0.008984699997427015,762.3005489999999,762.3337216000001,762.4339514,763.2337927,763.3666889,764.8333452,None,0,G,True,349.67580000011367,0.5094168999974045,1.4424331999973674,315,724574,725505,725820,Correct,764.8333452,765.0332741999999,,,,,,,,,,,,,,,,,,,,,,,,,,,,,,,,,,,,,90000,,,,2022-09-14_09h48.37.147,Prime-Probe,2022.2.4,60.02523460865312,
Test,Visual_Stimuli/N_Vert.png,Visual_Stimuli/T_Down.png,n,Neutral,Neutral,,,,,,,,,,,,,0,61,61,61,,,,,,,,,,,,,,,,,,,,,,,,,,,,,,,,,,,,,,,,,,,,,,,,,,,,,,,,,,0.008651399997233966,765.5001609,765.5337848,765.6330383000001,766.4333837,766.5664390999999,768.0329768,None,0,N,True,483.52250000016284,0.5094532999974035,1.4419933999972727,458,727772,728705,729163,Correct,768.0329768,768.2329707,,,,,,,,,,,,,,,,,,,,,,,,,,,,,,,,,,,,,90000,,,,2022-09-14_09h48.37.147,Prime-Probe,2022.2.4,60.02523460865312,
Test,Visual_Stimuli/D_Right.png,Visual_Stimuli/T_Right.png,g,Congruent,Neutral,,,,,,,,,,,,,0,62,62,62,,,,,,,,,,,,,,,,,,,,,,,,,,,,,,,,,,,,,,,,,,,,,,,,,,,,,,,,,,0.00840499999731037,768.6996413999999,768.7329481,768.8328799,769.6332900000001,769.7659646999999,771.2329046000001,None,0,G,True,332.98420000005535,0.5086350999972638,1.4416032999972686,298,730972,731906,732204,Correct,771.2329046000001,771.4327208000001,,,,,,,,,,,,,,,,,,,,,,,,,,,,,,,,,,,,,90000,,,,2022-09-14_09h48.37.147,Prime-Probe,2022.2.4,60.02523460865312,
Test,Visual_Stimuli/D_Up.png,Visual_Stimuli/T_Up.png,j,Congruent,Congruent,,,,,,,,,,,,,0,63,63,63,,,,,,,,,,,,,,,,,,,,,,,,,,,,,,,,,,,,,,,,,,,,,,,,,,,,,,,,,,0.008099599997194673,771.8993171999999,771.9326047000001,772.032382,772.8325370000001,772.9656666,774.4323731000001,None,0,J,True,516.9074999998884,0.5082635999972354,1.4412000999973316,486,734172,735104,735590,Correct,774.4323731000001,774.6320858,,,,,,,,,,,,,,,,,,,,,,,,,,,,,,,,,,,,,90000,,,,2022-09-14_09h48.37.147,Prime-Probe,2022.2.4,60.02523460865312,
Test,Visual_Stimuli/N_Horiz.png,Visual_Stimuli/T_Right.png,g,Neutral,Congruent,,,,,,,,,,,,,0,64,64,64,,,,,,,,,,,,,,,,,,,,,,,,,,,,,,,,,,,,,,,,,,,,,,,,,,,,,,,,,,0.007477399997242173,775.0989032000001,775.1323851000001,775.2321128,776.0321694999999,776.1654013000001,777.6317872999999,None,0,G,True,549.5046000000912,0.5081456999971579,1.440979699997115,515,737370,738304,738819,Correct,777.6317872999999,777.8319921000001,,,,,,,,,,,,,,,,,,,,,,,,,,,,,,,,,,,,,90000,,,,2022-09-14_09h48.37.147,Prime-Probe,2022.2.4,60.02523460865312,
Test,Visual_Stimuli/N_Vert.png,Visual_Stimuli/T_Down.png,n,Neutral,Neutral,,,,,,,,,,,,,0,65,65,65,,,,,,,,,,,,,,,,,,,,,,,,,,,,,,,,,,,,,,,,,,,,,,,,,,,,,,,,,,0.007438499997078907,778.2986032,778.3320226,778.4318364,779.2317546,779.3653098999999,780.8313893000001,None,0,N,True,449.66709999994237,0.5077909999970416,1.4405762999972467,416,740570,741502,741918,Correct,780.8313893000001,781.0314228000001,,,,,,,,,,,,,,,,,,,,,,,,,,,,,,,,,,,,,90000,,,,2022-09-14_09h48.37.147,Prime-Probe,2022.2.4,60.02523460865312,
Test,Visual_Stimuli/N_Horiz.png,Visual_Stimuli/T_Left.png,f,Neutral,Neutral,,,,,,,,,,,,,0,66,66,66,,,,,,,,,,,,,,,,,,,,,,,,,,,,,,,,,,,,,,,,,,,,,,,,,,,,,,,,,,0.0067965999971875135,781.4983714000001,781.5315761,781.6312945000001,782.4316628,782.5645575,784.0309569,None,0,F,True,432.73679999992964,0.5072555999970518,1.440344599997161,409,743770,744703,745112,Correct,784.0309569,784.2315826,,,,,,,,,,,,,,,,,,,,,,,,,,,,,,,,,,,,,90000,,,,2022-09-14_09h48.37.147,Prime-Probe,2022.2.4,60.02523460865312,
Test,Visual_Stimuli/D_Down.png,Visual_Stimuli/T_Down.png,n,Congruent,Neutral,,,,,,,,,,,,,0,67,67,67,,,,,,,,,,,,,,,,,,,,,,,,,,,,,,,,,,,,,,,,,,,,,,,,,,,,,,,,,,0.0069651999970119505,784.6980291000001,784.7312427999999,784.8314222,785.6312084,785.7641427,787.2306368000001,None,0,N,True,382.8077000000576,0.5071252999971421,1.4399251999971057,359,746968,747903,748262,Correct,787.2306368000001,787.4306611000001,,,,,,,,,,,,,,,,,,,,,,,,,,,,,,,,,,,,,90000,,,,2022-09-14_09h48.37.147,Prime-Probe,2022.2.4,60.02523460865312,
Test,Visual_Stimuli/N_Horiz.png,Visual_Stimuli/T_Right.png,g,Neutral,Congruent,,,,,,,,,,,,,0,68,68,68,,,,,,,,,,,,,,,,,,,,,,,,,,,,,,,,,,,,,,,,,,,,,,,,,,,,,,,,,,0.006078799997112583,787.8974786,787.9307967999999,788.0306632,788.8307639000001,788.963787,790.4302999,None,0,G,True,516.2255000000187,0.5065659999970649,1.4395345999969322,490,750169,751101,751591,Correct,790.4302999,790.6301921999999,,,,,,,,,,,,,,,,,,,,,,,,,,,,,,,,,,,,,90000,,,,2022-09-14_09h48.37.147,Prime-Probe,2022.2.4,60.02523460865312,
Test,Visual_Stimuli/D_Down.png,Visual_Stimuli/T_Down.png,n,Congruent,Neutral,,,,,,,,,,,,,0,69,69,69,,,,,,,,,,,,,,,,,,,,,,,,,,,,,,,,,,,,,,,,,,,,,,,,,,,,,,,,,,0.005566999996972299,791.097157,791.1304091999999,791.2301965,792.0303523000001,792.1634639,793.6298597000001,None,0,N,True,449.89490000011756,0.506071099996916,1.4391438999969068,424,753367,754301,754725,Correct,793.6298597000001,793.8301465000001,,,,,,,,,,,,,,,,,,,,,,,,,,,,,,,,,,,,,90000,,,,2022-09-14_09h48.37.147,Prime-Probe,2022.2.4,60.02523460865312,
Test,Visual_Stimuli/N_Horiz.png,Visual_Stimuli/T_Left.png,f,Neutral,Congruent,,,,,,,,,,,,,0,70,70,70,,,,,,,,,,,,,,,,,,,,,,,,,,,,,,,,,,,,,,,,,,,,,,,,,,,,,,,,,,0.005581099997016281,794.2968471,794.3302728,794.4297088,795.2300636000001,795.3632853,796.8294623,None,0,F,True,499.64169999998376,0.5060409999969124,1.4387947999969128,467,756567,757500,757967,Correct,796.8294623,797.0294680999999,,,,,,,,,,,,,,,,,,,,,,,,,,,,,,,,,,,,,90000,,,,2022-09-14_09h48.37.147,Prime-Probe,2022.2.4,60.02523460865312,
Test,Visual_Stimuli/N_Vert.png,Visual_Stimuli/T_Up.png,j,Neutral,Neutral,,,,,,,,,,,,,0,71,71,71,,,,,,,,,,,,,,,,,,,,,,,,,,,,,,,,,,,,,,,,,,,,,,,,,,,,,,,,,,0.004842899996901906,797.4963455999999,797.5295897,797.6293714,798.4296147000001,798.5627979,800.0291337,None,0,J,True,416.1850999998933,0.5053321999969285,1.4383656999968935,387,759768,760700,761087,Correct,800.0291337,800.3329130999999,,,,,,,,,,,,,,,,,,,,,,,,,,,,,,,,,,,,,90000,,,,2022-09-14_09h48.37.147,Prime-Probe,2022.2.4,60.02523460865312,
,,,,,,,,,,,,,,,,,,,,,,,,,,,,,,,,,,,,,,,,,,,,,,,,,,,,,,,,,,,,,,,,,,,,,,,,,,,,,,,,,,,,,,,,,,,,,,,,,,,,,,,810.9832673,810.9832673,None,,,,,800.3329130999999,800.3329130999999,,,,,,,,,,,,,,,,,,,,,,,,,90000,,,,2022-09-14_09h48.37.147,Prime-Probe,2022.2.4,60.02523460865312,
Test,Visual_Stimuli/N_Horiz.png,Visual_Stimuli/T_Left.png,f,Neutral,None,,,,,,,,,,,,,,,,,0,0,0,0,,,,,,,,,,,,,,,,,,,,,,,,,,,,,,,,,,,,,,,,,,,,,,,,,,810.9832673,812.7943272000001,812.7943272000001,812.9944225,0.005198099999915939,813.4613482000001,813.4945326000001,813.5943152000001,814.3954083,814.5274933,815.9943334999999,None,0,F,True,499.4901000000027,0.5152230999999574,1.448422500000106,476,775731,776665,777141,Correct,815.9943334999999,816.1939510999999,,,,,,,,,,,,,,,,,,,,,,,,,,,,,,,,,,,,,90000,,,,2022-09-14_09h48.37.147,Prime-Probe,2022.2.4,60.02523460865312,
