RunType,Distractor,Target,corrAns,CurrTrialType,PrevTrialType,Prime_Congruent_Key_Analog_Column,Prime_Incongruent_Key_Analog_Column,Probe_Congruent_Key_Analog_Column,Probe_Incongruent_Key_Analog_Column,Probe_Congruent_Key_Digital_Column,Pract1.thisRepN,Pract1.thisTrialN,Pract1.thisN,Pract1.thisIndex,Pract2.thisRepN,Pract2.thisTrialN,Pract2.thisN,Pract2.thisIndex,Trials_1.thisRepN,Trials_1.thisTrialN,Trials_1.thisN,Trials_1.thisIndex,Trials_2.thisRepN,Trials_2.thisTrialN,Trials_2.thisN,Trials_2.thisIndex,Trials_3.thisRepN,Trials_3.thisTrialN,Trials_3.thisN,Trials_3.thisIndex,Trials_4.thisRepN,Trials_4.thisTrialN,Trials_4.thisN,Trials_4.thisIndex,Trials_5.thisRepN,Trials_5.thisTrialN,Trials_5.thisN,Trials_5.thisIndex,Trials_6.thisRepN,Trials_6.thisTrialN,Trials_6.thisN,Trials_6.thisIndex,Trials_7.thisRepN,Trials_7.thisTrialN,Trials_7.thisN,Trials_7.thisIndex,Trials_8.thisRepN,Trials_8.thisTrialN,Trials_8.thisN,Trials_8.thisIndex,Trials_9.thisRepN,Trials_9.thisTrialN,Trials_9.thisN,Trials_9.thisIndex,Consent1_Image.started,Consent1_resp.started,Consent1_resp.keys,Consent2_Image.started,Consent2_resp.started,Consent2_resp.keys,Consent3_Image.started,Consent3_resp.started,Consent3_resp.keys,Placement_Image.started,Placement_resp.started,Placement_resp.keys,Instructions1_resp.started,Instructions1_image.started,Instructions1_resp.keys,Instructions2_resp.started,Instructions2_Image.started,Instructions2_resp.keys,Reminder1_Image.started,key_resp_3.started,key_resp_3.keys,key_resp_2.started,Instructions4_Txt.started,key_resp_2.keys,Interval_Text.started,Interval_Blank.started,Interval_Text.stopped,Interval_Blank.stopped,ISI_2.started,key_resp.started,Distract.started,Distract.stopped,Targ.started,Targ.stopped,key_resp.keys,key_resp.corr,Response Key,Key Correct,PsychoPy Response Time (ms),Distractor_Onset_PsychoPy,Target_Onset_PsychoPy,Arduino Response Time (ms),Distractor_Onset_Arduino (ms),Target_Onset_Arduino (ms),Arduino Key Press Time (ms),Feedback,Message.started,key_resp.stopped,Message.stopped,SecondPractice_Txt.started,SecondPractice_resp.started,SecondPractice_resp.keys,Reminder2_Image.started,Reminder2_resp.started,Reminder2_resp.keys,GoodJob_1.started,Ready_1.started,Eight_More.started,Ready_2.started,Seven_More.started,Ready_3.started,Six_More.started,Ready_4.started,Five_More.started,Ready_5.started,Four_More.started,Ready_6.started,Three_More.started,Ready_7.started,Two_More.started,Ready_8.started,One_More.started,Ready_9.started,Completion_Txt.started,Completion_resp.started,Completion_resp.keys,End_Response.started,Debrief1_Txt.started,End_Response.keys,Debrief2_Txt.started,Debrief2_resp.started,Debrief2_resp.keys,Debrief3_Txt.started,Debrief3_resp.started,Debrief3_resp.keys,participant,How old are you (in years)?,Are you male or female (M or F)?,Do you have normal vision and hearing (Y or N)?,date,expName,psychopyVersion,frameRate,
,,,,,,,,,,,,,,,,,,,,,,,,,,,,,,,,,,,,,,,,,,,,,,,,,,,,,,,100.80986459999997,100.80986459999997,None,,,,,,,,,,,,,,,,,,,,,,,,,,,,,,,,,,,,,,,,,,,,,,,,,,,,,,,,,,,,,,,,,,,,,,,,,,,,,,,,,,,384,19,f,y,2022-11-02_13h08.55.121,Prime-Probe,2022.2.4,60.11255474751757,
,,,,,,,,,,,,,,,,,,,,,,,,,,,,,,,,,,,,,,,,,,,,,,,,,,,,,,,,,,103.81979960000001,103.81979960000001,None,,,,,,,,,,,,,,,,,,,,,,,,,,,,,,,,,,,,,,,,,,,,,,,,,,,,,,,,,,,,,,,,,,,,,,,,,,,,,,,,384,19,f,y,2022-11-02_13h08.55.121,Prime-Probe,2022.2.4,60.11255474751757,
,,,,,,,,,,,,,,,,,,,,,,,,,,,,,,,,,,,,,,,,,,,,,,,,,,,,,,,,,,,,,103.81979960000001,103.81979960000001,None,,,,,,,,,,,,,,,,,,,,,,,,,,,,,,,,,,,,,,,,,,,,,,,,,,,,,,,,,,,,,,,,,,,,,,,,,,,,,384,19,f,y,2022-11-02_13h08.55.121,Prime-Probe,2022.2.4,60.11255474751757,
,,,,,,,,,,,,,,,,,,,,,,,,,,,,,,,,,,,,,,,,,,,,,,,,,,,,,,,,,,,,,,,,108.27730399999984,108.27730399999984,None,,,,,,,,,,,,,,,,,,,,,,,,,,,,,,,,,,,,,,,,,,,,,,,,,,,,,,,,,,,,,,,,,,,,,,,,,,384,19,f,y,2022-11-02_13h08.55.121,Prime-Probe,2022.2.4,60.11255474751757,
,,,,,,,,,,,,,,,,,,,,,,,,,,,,,,,,,,,,,,,,,,,,,,,,,,,,,,,,,,,,,,,,,,,108.27730399999984,108.27730399999984,None,,,,,,,,,,,,,,,,,,,,,,,,,,,,,,,,,,,,,,,,,,,,,,,,,,,,,,,,,,,,,,,,,,,,,,,384,19,f,y,2022-11-02_13h08.55.121,Prime-Probe,2022.2.4,60.11255474751757,
,,,,,,,,,,,,,,,,,,,,,,,,,,,,,,,,,,,,,,,,,,,,,,,,,,,,,,,,,,,,,,,,,,,,,,133.86894289999998,133.86894289999998,None,,,,,,,,,,,,,,,,,,,,,,,,,,,,,,,,,,,,,,,,,,,,,,,,,,,,,,,,,,,,,,,,,,,,384,19,f,y,2022-11-02_13h08.55.121,Prime-Probe,2022.2.4,60.11255474751757,
,,,,,,,,,,,,,,,,,,,,,,,,,,,,,,,,,,,,,,,,,,,,,,,,,,,,,,,,,,,,,,,,,,,,,,,,,143.16888329999995,143.16888329999995,None,,,,,,,,,,,,,,,,,,,,,,,,,,,,,,,,,,,,,,,,,,,,,,,,,,,,,,,,,,,,,,,,,384,19,f,y,2022-11-02_13h08.55.121,Prime-Probe,2022.2.4,60.11255474751757,
,,,,,,,,,,,,,,,,,,,,,,,,,,,,,,,,,,,,,,,,,,,,,,,,,,,,,,,,,,,,,,,,,,,,,,,,,,,,144.55914489999998,144.55914489999998,None,,,,,,,,,,,,,,,,,,,,,,,,,,,,,,,,,,,,,,,,,,,,,,,,,,,,,,,,,,,,,,384,19,f,y,2022-11-02_13h08.55.121,Prime-Probe,2022.2.4,60.11255474751757,
Practice,Visual_Stimuli/D_Right.png,Visual_Stimuli/T_Left.png,f,Incongruent,None,1,0,0,1,6,0,0,0,0,,,,,,,,,,,,,,,,,,,,,,,,,,,,,,,,,,,,,,,,,,,,,,,,,,,,,,,,,,,,,,,,,144.55914489999998,146.35090090000006,146.36748750000004,146.5607842999999,0.00751669999999649,147.09985369999993,147.09985369999993,147.21740149999994,147.28445899999986,147.41756729999986,None,0,F,True,366.74169999992046,0.5447736000000987,0.7677086000001054,341,55811,56046,56387,Correct,149.56742729999985,,,,,,,,,,,,,,,,,,,,,,,,,,,,,,,,,,,,,,,384,19,f,y,2022-11-02_13h08.55.121,Prime-Probe,2022.2.4,60.11255474751757,
Practice,Visual_Stimuli/D_Down.png,Visual_Stimuli/T_Up.png,j,Incongruent,Incongruent,4,2,2,4,8,0,1,1,1,,,,,,,,,,,,,,,,,,,,,,,,,,,,,,,,,,,,,,,,,,,,,,,,,,,,,,,,,,,,,,,,,,,,,0.0012065000000802684,150.28676589999998,150.28676589999998,150.41706239999996,150.48401490000003,150.61703490000002,None,0,J,True,315.9350999999333,0.5324926999999207,0.7677080000000842,280,59000,59247,59527,Correct,152.7668129,,,,,,,,,,,,,,,,,,,,,,,,,,,,,,,,,,,,,,,384,19,f,y,2022-11-02_13h08.55.121,Prime-Probe,2022.2.4,60.11255474751757,
Practice,Visual_Stimuli/D_Left.png,Visual_Stimuli/T_Right.png,g,Incongruent,Incongruent,0,1,1,0,7,0,2,2,2,,,,,,,,,,,,,,,,,,,,,,,,,,,,,,,,,,,,,,,,,,,,,,,,,,,,,,,,,,,,,,,,,,,,,0.0010647999999946478,153.45819849999987,153.45819849999987,153.58333689999984,153.68381239999997,153.81660829999998,None,0,G,True,332.7291000000514,0.5037043999998332,0.7676166999999623,299,62170,62445,62744,Correct,155.96634559999995,155.96634559999995,,,,,,,,,,,,,,,,,,,,,,,,,,,,,,,,,,,,,,384,19,f,y,2022-11-02_13h08.55.121,Prime-Probe,2022.2.4,60.11255474751757,
Practice,Visual_Stimuli/D_Up.png,Visual_Stimuli/T_Up.png,j,Congruent,Incongruent,2,4,2,4,8,0,3,3,3,,,,,,,,,,,,,,,,,,,,,,,,,,,,,,,,,,,,,,,,,,,,,,,,,,,,,,,,,,,,,,,,,,,,,0.0010764999999537395,156.65018859999998,156.61703449999993,156.74985919999983,156.88342899999986,157.0163953,None,0,J,True,266.64499999992586,0.5004336999998031,0.7830300999999054,237,65379,65661,65898,Correct,159.14977809999993,159.14977809999993,159.34974019999993,,,,,,,,,,,,,,,,,,,,,,,,,,,,,,,,,,,,,384,19,f,y,2022-11-02_13h08.55.121,Prime-Probe,2022.2.4,60.11255474751757,
Practice,Visual_Stimuli/D_Right.png,Visual_Stimuli/T_Left.png,f,Incongruent,Congruent,1,0,0,1,6,0,4,4,4,,,,,,,,,,,,,,,,,,,,,,,,,,,,,,,,,,,,,,,,,,,,,,,,,,,,,,,,,,,,,,,,,,,,,-0.0003019000000676897,159.8497039,159.81652329999986,159.94944329999987,160.08296570000005,160.2161089,None,0,G,False,266.5891999999985,0.5001327999998466,0.7826028999998016,235,68579,68861,69096,Incorrect,162.36608049999984,162.34914360000005,162.5657038999999,,,,,,,,,,,,,,,,,,,,,,,,,,,,,,,,,,,,,384,19,f,y,2022-11-02_13h08.55.121,Prime-Probe,2022.2.4,60.11255474751757,
Practice,Visual_Stimuli/D_Up.png,Visual_Stimuli/T_Up.png,j,Congruent,Incongruent,2,4,2,4,8,0,5,5,5,,,,,,,,,,,,,,,,,,,,,,,,,,,,,,,,,,,,,,,,,,,,,,,,,,,,,,,,,,,,,,,,,,,,,-2.9400000130408444e-05,163.04910789999997,163.01600259999998,163.14915050000002,163.28261499999996,163.41559859999995,None,0,J,True,216.0991999999169,0.5159444999997049,0.7828127999998742,185,71793,72060,72245,Correct,165.56563219999987,165.54898019999985,165.7653818,,,,,,,,,,,,,,,,,,,,,,,,,,,,,,,,,,,,,384,19,f,y,2022-11-02_13h08.55.121,Prime-Probe,2022.2.4,60.11255474751757,
Practice,Visual_Stimuli/D_Left.png,Visual_Stimuli/T_Right.png,g,Incongruent,Congruent,0,1,1,0,7,0,6,6,6,,,,,,,,,,,,,,,,,,,,,,,,,,,,,,,,,,,,,,,,,,,,,,,,,,,,,,,,,,,,,,,,,,,,,-0.00021090000018375576,166.24919709999983,166.2326586999999,166.3653387999999,166.49872479999988,166.63200670000003,None,0,G,True,433.50020000002587,0.5156737999998313,0.7818636999998034,405,74993,75260,75665,Correct,168.7648794999999,168.7481856999999,168.96489269999995,,,,,,,,,,,,,,,,,,,,,,,,,,,,,,,,,,,,,384,19,f,y,2022-11-02_13h08.55.121,Prime-Probe,2022.2.4,60.11255474751757,
Practice,Visual_Stimuli/D_Up.png,Visual_Stimuli/T_Down.png,n,Incongruent,Incongruent,2,4,4,2,10,0,7,7,7,,,,,,,,,,,,,,,,,,,,,,,,,,,,,,,,,,,,,,,,,,,,,,,,,,,,,,,,,,,,,,,,,,,,,-0.0004953000002387853,169.46521040000005,169.43196150000006,169.5649580999999,169.69846259999997,169.83139960000005,None,0,N,True,366.30520000016986,0.5154879999997775,0.7818470999995952,331,78194,78460,78791,Correct,171.96452399999987,171.96452399999987,172.16479419999985,,,,,,,,,,,,,,,,,,,,,,,,,,,,,,,,,,,,,384,19,f,y,2022-11-02_13h08.55.121,Prime-Probe,2022.2.4,60.11255474751757,
Practice,Visual_Stimuli/D_Right.png,Visual_Stimuli/T_Left.png,f,Incongruent,Incongruent,1,0,0,1,6,0,8,8,8,,,,,,,,,,,,,,,,,,,,,,,,,,,,,,,,,,,,,,,,,,,,,,,,,,,,,,,,,,,,,,,,,,,,,0.014735199999677207,172.6646482,172.63142919999984,172.76446320000002,172.89823420000005,173.03123949999997,None,0,F,True,333.12450000016725,0.5149260999996841,0.7813634999995429,305,81392,81658,81963,Correct,175.16416079999988,175.16416079999988,175.36420579999992,,,,,,,,,,,,,,,,,,,,,,,,,,,,,,,,,,,,,384,19,f,y,2022-11-02_13h08.55.121,Prime-Probe,2022.2.4,60.11255474751757,
Practice,Visual_Stimuli/D_Down.png,Visual_Stimuli/T_Down.png,n,Congruent,Incongruent,4,2,4,2,10,0,9,9,9,,,,,,,,,,,,,,,,,,,,,,,,,,,,,,,,,,,,,,,,,,,,,,,,,,,,,,,,,,,,,,,,,,,,,0.014142999999648964,175.86444459999996,175.83118579999984,175.96409579999988,176.09783549999986,176.23073509999983,None,0,N,True,282.8494000000319,0.5146709999996801,0.7811116999996557,257,84592,84858,85115,Correct,178.36391249999986,178.36391249999986,178.56390509999994,,,,,,,,,,,,,,,,,,,,,,,,,,,,,,,,,,,,,384,19,f,y,2022-11-02_13h08.55.121,Prime-Probe,2022.2.4,60.11255474751757,
Practice,Visual_Stimuli/D_Left.png,Visual_Stimuli/T_Right.png,g,Incongruent,Congruent,0,1,1,0,7,0,10,10,10,,,,,,,,,,,,,,,,,,,,,,,,,,,,,,,,,,,,,,,,,,,,,,,,,,,,,,,,,,,,,,,,,,,,,0.013839999999618158,179.06405719999987,179.03071639999996,179.16360139999995,179.29736820000005,179.43100819999984,None,0,G,True,383.01479999995536,0.514327899999671,0.7805239999995592,344,87792,88059,88403,Correct,181.56371550000006,181.56371550000006,181.76336849999996,,,,,,,,,,,,,,,,,,,,,,,,,,,,,,,,,,,,,384,19,f,y,2022-11-02_13h08.55.121,Prime-Probe,2022.2.4,60.11255474751757,
Practice,Visual_Stimuli/D_Down.png,Visual_Stimuli/T_Up.png,j,Incongruent,Incongruent,4,2,2,4,8,0,11,11,11,,,,,,,,,,,,,,,,,,,,,,,,,,,,,,,,,,,,,,,,,,,,,,,,,,,,,,,,,,,,,,,,,,,,,0.01330649999954403,182.2635661999999,182.23035530000004,182.36336389999985,182.4969554999999,182.63006859999984,None,0,J,True,316.4443000000574,0.5138002999995024,0.7801234999994904,289,90991,91257,91546,Correct,184.76304229999994,184.76304229999994,184.9630274,,,,,,,,,,,,,,,,,,,,,,,,,,,,,,,,,,,,,384,19,f,y,2022-11-02_13h08.55.121,Prime-Probe,2022.2.4,60.11255474751757,
Practice,Visual_Stimuli/D_Right.png,Visual_Stimuli/T_Right.png,g,Congruent,Incongruent,1,0,1,0,7,0,12,12,12,,,,,,,,,,,,,,,,,,,,,,,,,,,,,,,,,,,,,,,,,,,,,,,,,,,,,,,,,,,,,,,,,,,,,0.012997299999369716,185.46337649999998,185.43015879999996,185.56286979999993,185.69677749999994,185.8295637,None,0,G,True,249.72200000001976,0.5136164999994435,0.779919299999392,221,94191,94457,94678,Correct,187.96270739999989,187.96270739999989,188.16303689999984,,,,,,,,,,,,,,,,,,,,,,,,,,,,,,,,,,,,,384,19,f,y,2022-11-02_13h08.55.121,Prime-Probe,2022.2.4,60.11255474751757,
Practice,Visual_Stimuli/D_Down.png,Visual_Stimuli/T_Down.png,n,Congruent,Congruent,4,2,4,2,10,0,13,13,13,,,,,,,,,,,,,,,,,,,,,,,,,,,,,,,,,,,,,,,,,,,,,,,,,,,,,,,,,,,,,,,,,,,,,0.013013399999408648,188.6629268999999,188.62967319999996,188.7626047,188.8964084999999,189.02957170000002,None,0,N,True,266.35670000018763,0.5131973999993988,0.7794588999993266,239,97389,97655,97894,Correct,191.16233309999996,191.16233309999996,191.36231379999992,,,,,,,,,,,,,,,,,,,,,,,,,,,,,,,,,,,,,384,19,f,y,2022-11-02_13h08.55.121,Prime-Probe,2022.2.4,60.11255474751757,
Practice,Visual_Stimuli/D_Left.png,Visual_Stimuli/T_Left.png,f,Congruent,Congruent,0,1,0,1,6,0,14,14,14,,,,,,,,,,,,,,,,,,,,,,,,,,,,,,,,,,,,,,,,,,,,,,,,,,,,,,,,,,,,,,,,,,,,,0.012247199999364966,191.86306619999993,191.82923479999988,191.96222279999995,192.0958379,192.22893220000003,None,0,F,True,283.26430000015534,0.5133147999993071,0.778992799999287,247,100589,100856,101103,Correct,194.37869190000004,,,,,,,,,,,,,,,,,,,,,,,,,,,,,,,,,,,,,,,384,19,f,y,2022-11-02_13h08.55.121,Prime-Probe,2022.2.4,60.11255474751757,
Practice,Visual_Stimuli/D_Down.png,Visual_Stimuli/T_Up.png,j,Incongruent,Congruent,4,2,2,4,8,0,15,15,15,,,,,,,,,,,,,,,,,,,,,,,,,,,,,,,,,,,,,,,,,,,,,,,,,,,,,,,,,,,,,,,,,,,,,0.01279489999933503,195.06214349999993,195.02886929999988,195.1617903,195.29558269999995,195.42861619999996,None,0,J,True,366.384700000026,0.512405799999442,0.7786542999992889,343,103789,104056,104399,Correct,197.5619974,197.5619974,197.76159470000005,,,,,,,,,,,,,,,,,,,,,,,,,,,,,,,,,,,,,384,19,f,y,2022-11-02_13h08.55.121,Prime-Probe,2022.2.4,60.11255474751757,
Practice,Visual_Stimuli/D_Left.png,Visual_Stimuli/T_Left.png,f,Congruent,Incongruent,0,1,0,1,6,0,16,16,16,,,,,,,,,,,,,,,,,,,,,,,,,,,,,,,,,,,,,,,,,,,,,,,,,,,,,,,,,,,,,,,,,,,,,0.011529399999290035,198.2619002,198.2285713,198.36161069999991,198.49506910000002,198.62821739999993,None,0,F,True,266.29010000010567,0.5121777999993355,0.7783749999991869,237,106988,107254,107491,Correct,200.76117820000002,200.76117820000002,200.96116440000003,,,,,,,,,,,,,,,,,,,,,,,,,,,,,,,,,,,,,384,19,f,y,2022-11-02_13h08.55.121,Prime-Probe,2022.2.4,60.11255474751757,
Practice,Visual_Stimuli/D_Up.png,Visual_Stimuli/T_Up.png,j,Congruent,Congruent,2,4,2,4,8,0,17,17,17,,,,,,,,,,,,,,,,,,,,,,,,,,,,,,,,,,,,,,,,,,,,,,,,,,,,,,,,,,,,,,,,,,,,,0.011097799999333802,201.4613865,201.42811859999995,201.56118809999987,201.69473519999985,201.82769129999986,None,0,J,True,315.961199999947,0.5115952999992714,0.7785521999992397,285,110188,110454,110739,Correct,203.96084639999992,203.96084639999992,204.24996090000002,,,,,,,,,,,,,,,,,,,,,,,,,,,,,,,,,,,,,384,19,f,y,2022-11-02_13h08.55.121,Prime-Probe,2022.2.4,60.11255474751757,
,,,,,,,,,,,,,,,,,,,,,,,,,,,,,,,,,,,,,,,,,,,,,,,,,,,,,,,,,,,,,,,,,,,,,,,,,,,,,,,,,,,,,,,,,,,,,,,,,,,,,,,,204.24996090000002,204.24996090000002,None,,,,,,,,,,,,,,,,,,,,,,,,,,,,,,,,,,384,19,f,y,2022-11-02_13h08.55.121,Prime-Probe,2022.2.4,60.11255474751757,
,,,,,,,,,,,,,,,,,,,,,,,,,,,,,,,,,,,,,,,,,,,,,,,,,,,,,,,,,,,,,,,,,,,,,,,,,,,,,,,,,,,,,,,,,,,,,,,,,,,,,,,,,,,226.03068969999993,226.03068969999993,None,,,,,,,,,,,,,,,,,,,,,,,,,,,,,,,384,19,f,y,2022-11-02_13h08.55.121,Prime-Probe,2022.2.4,60.11255474751757,
Practice,Visual_Stimuli/D_Right.png,Visual_Stimuli/T_Right.png,g,Congruent,Congruent,1,0,1,0,7,,,,,0,0,0,0,,,,,,,,,,,,,,,,,,,,,,,,,,,,,,,,,,,,,,,,,,,,,,,,,,,,,,,,,,,,,226.03068969999993,227.84144449999997,227.84144449999997,228.04144229999986,0.004754000000048109,228.54164389999994,228.50831029999983,228.64142219999997,228.77504859999988,228.90795689999993,None,0,G,True,316.2202000000889,0.5152484000000186,0.7815398000000187,284,137267,137534,137818,Correct,231.04109499999993,231.04109499999993,231.2411148,,,,,,,,,,,,,,,,,,,,,,,,,,,,,,,,,,,,,384,19,f,y,2022-11-02_13h08.55.121,Prime-Probe,2022.2.4,60.11255474751757,
Practice,Visual_Stimuli/D_Down.png,Visual_Stimuli/T_Down.png,n,Congruent,Congruent,4,2,4,2,10,,,,,0,1,1,1,,,,,,,,,,,,,,,,,,,,,,,,,,,,,,,,,,,,,,,,,,,,,,,,,,,,,,,,,,,,,,,,,0.014402499999960128,231.74151999999992,231.70787639999992,231.84094219999986,231.97481679999999,232.10778900000003,None,0,N,True,349.7150999999121,0.5152015999999549,0.781157500000063,324,140465,140733,141057,Correct,234.24151369999993,234.24151369999993,234.44064449999985,,,,,,,,,,,,,,,,,,,,,,,,,,,,,,,,,,,,,384,19,f,y,2022-11-02_13h08.55.121,Prime-Probe,2022.2.4,60.11255474751757,
Practice,Visual_Stimuli/D_Left.png,Visual_Stimuli/T_Left.png,f,Congruent,Congruent,0,1,0,1,6,,,,,0,2,2,2,,,,,,,,,,,,,,,,,,,,,,,,,,,,,,,,,,,,,,,,,,,,,,,,,,,,,,,,,,,,,,,,,0.013956400000097346,234.94083820000003,234.90757810000002,235.0407982999999,235.17404699999986,235.30712979999987,None,0,F,True,249.55249999993612,0.5143918999999642,0.7808585000000221,226,143665,143933,144159,Correct,237.4402968999999,237.4402968999999,237.64022820000002,,,,,,,,,,,,,,,,,,,,,,,,,,,,,,,,,,,,,384,19,f,y,2022-11-02_13h08.55.121,Prime-Probe,2022.2.4,60.11255474751757,
Practice,Visual_Stimuli/D_Up.png,Visual_Stimuli/T_Down.png,n,Incongruent,Congruent,2,4,4,2,10,,,,,0,3,3,3,,,,,,,,,,,,,,,,,,,,,,,,,,,,,,,,,,,,,,,,,,,,,,,,,,,,,,,,,,,,,,,,,0.013505399999985457,238.14067949999992,238.10718329999997,238.24017919999994,238.37393910000003,238.50695889999986,None,0,N,True,349.5281000000432,0.5143026999999165,0.7805699999998978,324,146864,147133,147457,Correct,240.63993349999998,240.63993349999998,240.83997269999998,,,,,,,,,,,,,,,,,,,,,,,,,,,,,,,,,,,,,384,19,f,y,2022-11-02_13h08.55.121,Prime-Probe,2022.2.4,60.11255474751757,
Practice,Visual_Stimuli/D_Right.png,Visual_Stimuli/T_Right.png,g,Congruent,Incongruent,1,0,1,0,7,,,,,0,4,4,4,,,,,,,,,,,,,,,,,,,,,,,,,,,,,,,,,,,,,,,,,,,,,,,,,,,,,,,,,,,,,,,,,0.013265199999977995,241.34039619999987,241.30679099999986,241.4399087999999,241.57346799999993,241.7065334,None,0,G,True,283.1879000000299,0.5139765999999781,0.7799504999998135,255,150064,150331,150586,Correct,243.8396128999999,243.8396128999999,244.0395322999999,,,,,,,,,,,,,,,,,,,,,,,,,,,,,,,,,,,,,384,19,f,y,2022-11-02_13h08.55.121,Prime-Probe,2022.2.4,60.11255474751757,
Practice,Visual_Stimuli/D_Up.png,Visual_Stimuli/T_Down.png,n,Incongruent,Congruent,2,4,4,2,10,,,,,0,5,5,5,,,,,,,,,,,,,,,,,,,,,,,,,,,,,,,,,,,,,,,,,,,,,,,,,,,,,,,,,,,,,,,,,0.0128133999999136,244.53976219999993,244.50656689999994,244.6396664,244.7731270999999,244.90611149999984,None,0,N,True,366.39500000001135,0.5133569999998144,0.7795298999999432,339,153264,153532,153871,Correct,247.03933840000002,247.03933840000002,247.33886180000002,,,,,,,,,,,,,,,,,,,,,,,,,,,,,,,,,,,,,384,19,f,y,2022-11-02_13h08.55.121,Prime-Probe,2022.2.4,60.11255474751757,
,,,,,,,,,,,,,,,,,,,,,,,,,,,,,,,,,,,,,,,,,,,,,,,,,,,,,,,,,,,,,,,,,,,,,,,,,,,,,,,,,,,,,,,,,,,,,,,,,,,,,,,,,,,248.37744280000004,248.37744280000004,None,247.33886180000002,247.33886180000002,,,,,,,,,,,,,,,,,,,,,,,,,,,,,384,19,f,y,2022-11-02_13h08.55.121,Prime-Probe,2022.2.4,60.11255474751757,
Test,Visual_Stimuli/D_Right.png,Visual_Stimuli/T_Left.png,f,Incongruent,None,1,0,0,1,6,,,,,,,,,0,0,0,0,,,,,,,,,,,,,,,,,,,,,,,,,,,,,,,,,,,,,,,,,,,,,,,,,,,,,,,,,248.37744280000004,250.18887329999995,250.18887329999995,250.38875589999986,0.009440699999913704,250.88917060000006,250.85606849999988,250.98899169999993,251.12267799999984,251.2555819999999,None,0,F,True,333.1005999998524,0.5155981000000338,0.7818929000000026,314,159613,159879,160193,Correct,253.38856869999984,253.38856869999984,253.58841640000003,,,,,,,,,,,,,,,,,,,,,,,,,,,,,,,,,,,,,384,19,f,y,2022-11-02_13h08.55.121,Prime-Probe,2022.2.4,60.11255474751757,
Test,Visual_Stimuli/D_Up.png,Visual_Stimuli/T_Down.png,n,Incongruent,Incongruent,2,4,4,2,10,,,,,,,,,0,1,1,1,,,,,,,,,,,,,,,,,,,,,,,,,,,,,,,,,,,,,,,,,,,,,,,,,,,,,,,,,,,,,0.014473799999905168,254.08876559999987,254.05546500000003,254.18836219999991,254.3221631,254.45495129999983,None,0,N,True,366.71529999989616,0.5151621999998497,0.7812544999999318,344,162813,163079,163423,Correct,256.58805300000006,256.58805300000006,256.7881882999999,,,,,,,,,,,,,,,,,,,,,,,,,,,,,,,,,,,,,384,19,f,y,2022-11-02_13h08.55.121,Prime-Probe,2022.2.4,60.11255474751757,
Test,Visual_Stimuli/D_Right.png,Visual_Stimuli/T_Right.png,g,Congruent,Incongruent,1,0,1,0,7,,,,,,,,,0,2,2,2,,,,,,,,,,,,,,,,,,,,,,,,,,,,,,,,,,,,,,,,,,,,,,,,,,,,,,,,,,,,,0.014263699999901291,257.2884051,257.25528969999993,257.3879825,257.52171629999987,257.65459150000004,None,0,G,True,266.5660000000116,0.5149381999999605,0.7810501999997541,237,166011,166278,166515,Correct,259.7878990999999,259.7878990999999,259.9877880999999,,,,,,,,,,,,,,,,,,,,,,,,,,,,,,,,,,,,,384,19,f,y,2022-11-02_13h08.55.121,Prime-Probe,2022.2.4,60.11255474751757,
Test,Visual_Stimuli/D_Up.png,Visual_Stimuli/T_Up.png,j,Congruent,Congruent,2,4,2,4,8,,,,,,,,,0,3,3,3,,,,,,,,,,,,,,,,,,,,,,,,,,,,,,,,,,,,,,,,,,,,,,,,,,,,,,,,,,,,,0.013857699999789475,260.4879050999999,260.4546182,260.5875419,260.72125289999997,260.85423219999996,None,0,J,True,283.21130000017547,0.5142925999998624,0.7805482999997366,251,169211,169478,169729,Correct,262.9873799999999,262.9873799999999,263.1872660999999,,,,,,,,,,,,,,,,,,,,,,,,,,,,,,,,,,,,,384,19,f,y,2022-11-02_13h08.55.121,Prime-Probe,2022.2.4,60.11255474751757,
Test,Visual_Stimuli/D_Right.png,Visual_Stimuli/T_Right.png,g,Congruent,Congruent,1,0,1,0,7,,,,,,,,,0,4,4,4,,,,,,,,,,,,,,,,,,,,,,,,,,,,,,,,,,,,,,,,,,,,,,,,,,,,,,,,,,,,,0.013320199999725446,263.68759799999987,263.65459539999995,263.78737809999996,263.92082889999995,264.0539021999999,None,0,G,True,299.70509999998285,0.5139763999998195,0.7801749999998719,268,172412,172678,172946,Correct,266.1871298,266.1871298,266.3870014999999,,,,,,,,,,,,,,,,,,,,,,,,,,,,,,,,,,,,,384,19,f,y,2022-11-02_13h08.55.121,Prime-Probe,2022.2.4,60.11255474751757,
Test,Visual_Stimuli/D_Down.png,Visual_Stimuli/T_Down.png,n,Congruent,Congruent,4,2,4,2,10,,,,,,,,,0,5,5,5,,,,,,,,,,,,,,,,,,,,,,,,,,,,,,,,,,,,,,,,,,,,,,,,,,,,,,,,,,,,,0.013084499999649779,266.88723059999995,266.8542443,266.986894,267.1204394,267.25374639999984,None,0,N,True,282.90960000003906,0.5136094999998022,0.7799155999996401,262,175610,175876,176138,Correct,269.38661909999985,269.38661909999985,269.5868752,,,,,,,,,,,,,,,,,,,,,,,,,,,,,,,,,,,,,384,19,f,y,2022-11-02_13h08.55.121,Prime-Probe,2022.2.4,60.11255474751757,
Test,Visual_Stimuli/D_Right.png,Visual_Stimuli/T_Left.png,f,Incongruent,Congruent,1,0,0,1,6,,,,,,,,,0,6,6,6,,,,,,,,,,,,,,,,,,,,,,,,,,,,,,,,,,,,,,,,,,,,,,,,,,,,,,,,,,,,,0.012942299999622264,270.08675289999985,270.05351829999984,270.1864984,270.32035689999987,270.45309069999996,None,0,F,True,349.7621000001345,0.5131195999997544,0.779446299999563,313,178810,179077,179390,Correct,272.5862317,272.5862317,272.7863761,,,,,,,,,,,,,,,,,,,,,,,,,,,,,,,,,,,,,384,19,f,y,2022-11-02_13h08.55.121,Prime-Probe,2022.2.4,60.11255474751757,
Test,Visual_Stimuli/D_Up.png,Visual_Stimuli/T_Up.png,j,Congruent,Incongruent,2,4,2,4,8,,,,,,,,,0,7,7,7,,,,,,,,,,,,,,,,,,,,,,,,,,,,,,,,,,,,,,,,,,,,,,,,,,,,,,,,,,,,,0.012431099999730577,273.2865069999999,273.2532175,273.38613569999995,273.52024389999985,273.65268519999984,None,0,J,True,283.1048999998984,0.5128790999997364,0.779048599999669,253,182008,182277,182530,Correct,275.78591219999987,275.78591219999987,275.9857117999999,,,,,,,,,,,,,,,,,,,,,,,,,,,,,,,,,,,,,384,19,f,y,2022-11-02_13h08.55.121,Prime-Probe,2022.2.4,60.11255474751757,
Test,Visual_Stimuli/D_Left.png,Visual_Stimuli/T_Left.png,f,Congruent,Congruent,0,1,0,1,6,,,,,,,,,0,8,8,8,,,,,,,,,,,,,,,,,,,,,,,,,,,,,,,,,,,,,,,,,,,,,,,,,,,,,,,,,,,,,0.011768699999493037,276.48598890000005,276.4528813999999,276.58577950000006,276.71944989999986,276.8524449999999,None,0,F,True,283.11779999989994,0.5124719999996614,0.7786274999996294,249,185209,185475,185724,Correct,278.9856489,278.9856489,279.18577500000004,,,,,,,,,,,,,,,,,,,,,,,,,,,,,,,,,,,,,384,19,f,y,2022-11-02_13h08.55.121,Prime-Probe,2022.2.4,60.11255474751757,
Test,Visual_Stimuli/D_Up.png,Visual_Stimuli/T_Down.png,n,Incongruent,Congruent,2,4,4,2,10,,,,,,,,,0,9,9,9,,,,,,,,,,,,,,,,,,,,,,,,,,,,,,,,,,,,,,,,,,,,,,,,,,,,,,,,,,,,,0.01187969999955385,279.68554170000004,279.6525135999999,279.78548179999996,279.9192826,280.05205020000005,None,0,N,True,316.3945999999669,0.5118727999995372,0.7782902999995258,285,188409,188675,188960,Correct,282.18517799999984,282.18517799999984,282.38511519999986,,,,,,,,,,,,,,,,,,,,,,,,,,,,,,,,,,,,,384,19,f,y,2022-11-02_13h08.55.121,Prime-Probe,2022.2.4,60.11255474751757,
Test,Visual_Stimuli/D_Left.png,Visual_Stimuli/T_Left.png,f,Congruent,Incongruent,0,1,0,1,6,,,,,,,,,0,10,10,10,,,,,,,,,,,,,,,,,,,,,,,,,,,,,,,,,,,,,,,,,,,,,,,,,,,,,,,,,,,,,0.011199799999531024,282.8853399999999,282.8521520999999,282.9850158999999,283.1188395999999,283.25161330000003,None,0,F,True,282.81059999994795,0.5117653999993763,0.7780987999994977,258,191607,191874,192132,Correct,285.3848999999999,285.3848999999999,285.5847608999999,,,,,,,,,,,,,,,,,,,,,,,,,,,,,,,,,,,,,384,19,f,y,2022-11-02_13h08.55.121,Prime-Probe,2022.2.4,60.11255474751757,
Test,Visual_Stimuli/D_Up.png,Visual_Stimuli/T_Up.png,j,Congruent,Congruent,2,4,2,4,8,,,,,,,,,0,11,11,11,,,,,,,,,,,,,,,,,,,,,,,,,,,,,,,,,,,,,,,,,,,,,,,,,,,,,,,,,,,,,0.010953899999549321,286.08517029999996,286.0517366999999,286.18469019999986,286.31832769999994,286.4512274,None,0,J,True,282.850499999995,0.5115987999995468,0.7777441999994608,247,194807,195074,195321,Correct,288.5844959,288.5844959,288.7842225999999,,,,,,,,,,,,,,,,,,,,,,,,,,,,,,,,,,,,,384,19,f,y,2022-11-02_13h08.55.121,Prime-Probe,2022.2.4,60.11255474751757,
Test,Visual_Stimuli/D_Right.png,Visual_Stimuli/T_Left.png,f,Incongruent,Congruent,1,0,0,1,6,,,,,,,,,0,12,12,12,,,,,,,,,,,,,,,,,,,,,,,,,,,,,,,,,,,,,,,,,,,,,,,,,,,,,,,,,,,,,0.010316399999283021,289.28461200000004,289.25124070000004,289.3844029999999,289.51812229999985,289.6512595999999,None,0,G,False,216.45540000008623,0.5110448999994333,0.7774737999993704,183,198008,198274,198457,Incorrect,291.78413509999984,291.78413509999984,291.98395689999995,,,,,,,,,,,,,,,,,,,,,,,,,,,,,,,,,,,,,384,19,f,y,2022-11-02_13h08.55.121,Prime-Probe,2022.2.4,60.11255474751757,
Test,Visual_Stimuli/D_Down.png,Visual_Stimuli/T_Down.png,n,Congruent,Incongruent,4,2,4,2,10,,,,,,,,,0,13,13,13,,,,,,,,,,,,,,,,,,,,,,,,,,,,,,,,,,,,,,,,,,,,,,,,,,,,,,,,,,,,,0.010034999999334104,292.4841625999999,292.45089429999996,292.58396289999985,292.71763610000005,292.85088370000005,None,0,N,True,233.0947999998898,0.5106406999993851,0.7768260999994254,199,201206,201472,201671,Correct,294.9835861,294.9835861,295.1836026,,,,,,,,,,,,,,,,,,,,,,,,,,,,,,,,,,,,,384,19,f,y,2022-11-02_13h08.55.121,Prime-Probe,2022.2.4,60.11255474751757,
Test,Visual_Stimuli/D_Right.png,Visual_Stimuli/T_Right.png,g,Congruent,Congruent,1,0,1,0,7,,,,,,,,,0,14,14,14,,,,,,,,,,,,,,,,,,,,,,,,,,,,,,,,,,,,,,,,,,,,,,,,,,,,,,,,,,,,,0.009699099999352256,295.68372869999996,295.6505068,295.7834474,295.91713849999985,296.0502461,None,0,G,True,283.04339999999684,0.5101939999992737,0.7766340999992281,254,204406,204673,204927,Correct,298.1833398,298.1833398,298.38327100000004,,,,,,,,,,,,,,,,,,,,,,,,,,,,,,,,,,,,,384,19,f,y,2022-11-02_13h08.55.121,Prime-Probe,2022.2.4,60.11255474751757,
Test,Visual_Stimuli/D_Up.png,Visual_Stimuli/T_Down.png,n,Incongruent,Congruent,2,4,4,2,10,,,,,,,,,0,15,15,15,,,,,,,,,,,,,,,,,,,,,,,,,,,,,,,,,,,,,,,,,,,,,,,,,,,,,,,,,,,,,0.009395299999368945,298.8834856,298.85025770000004,298.983118,299.11683949999986,299.2499262,None,0,N,True,299.4984999997996,0.5099335999991581,0.776384899999357,275,207604,207873,208148,Correct,301.38309130000005,301.38309130000005,301.58299249999993,,,,,,,,,,,,,,,,,,,,,,,,,,,,,,,,,,,,,384,19,f,y,2022-11-02_13h08.55.121,Prime-Probe,2022.2.4,60.11255474751757,
Test,Visual_Stimuli/D_Right.png,Visual_Stimuli/T_Right.png,g,Congruent,Incongruent,1,0,1,0,7,,,,,,,,,0,16,16,16,,,,,,,,,,,,,,,,,,,,,,,,,,,,,,,,,,,,,,,,,,,,,,,,,,,,,,,,,,,,,0.009133499999279593,302.0830651,302.0498383999999,302.18283239999994,302.3165006999999,302.44939369999986,None,0,G,True,283.10549999991963,0.5095269999992524,0.7757699999992838,259,210805,211071,211330,Correct,304.5825386,304.5825386,304.7823651,,,,,,,,,,,,,,,,,,,,,,,,,,,,,,,,,,,,,384,19,f,y,2022-11-02_13h08.55.121,Prime-Probe,2022.2.4,60.11255474751757,
Test,Visual_Stimuli/D_Up.png,Visual_Stimuli/T_Down.png,n,Incongruent,Congruent,2,4,4,2,10,,,,,,,,,0,17,17,17,,,,,,,,,,,,,,,,,,,,,,,,,,,,,,,,,,,,,,,,,,,,,,,,,,,,,,,,,,,,,0.008429199999227421,305.28267359999984,305.24936709999986,305.3827949,305.5161689999999,305.6491368999999,None,0,N,True,333.4866999998667,0.5091130999992401,0.7752952999992431,312,214005,214271,214583,Correct,307.78209890000005,307.78209890000005,307.9821289,,,,,,,,,,,,,,,,,,,,,,,,,,,,,,,,,,,,,384,19,f,y,2022-11-02_13h08.55.121,Prime-Probe,2022.2.4,60.11255474751757,
Test,Visual_Stimuli/D_Left.png,Visual_Stimuli/T_Right.png,g,Incongruent,Incongruent,0,1,1,0,7,,,,,,,,,0,18,18,18,,,,,,,,,,,,,,,,,,,,,,,,,,,,,,,,,,,,,,,,,,,,,,,,,,,,,,,,,,,,,0.008214399999133093,308.4823155999999,308.4490253,308.58193900000003,308.7159819,308.8488676999999,None,0,G,True,399.6844999999212,0.5088222999991103,0.7749354999991738,367,217203,217470,217837,Correct,310.98184230000004,310.98184230000004,311.1817792999999,,,,,,,,,,,,,,,,,,,,,,,,,,,,,,,,,,,,,384,19,f,y,2022-11-02_13h08.55.121,Prime-Probe,2022.2.4,60.11255474751757,
Test,Visual_Stimuli/D_Up.png,Visual_Stimuli/T_Down.png,n,Incongruent,Incongruent,2,4,4,2,10,,,,,,,,,0,19,19,19,,,,,,,,,,,,,,,,,,,,,,,,,,,,,,,,,,,,,,,,,,,,,,,,,,,,,,,,,,,,,0.00788829999896734,311.6819528,311.64877549999994,311.7819968,311.91520949999983,312.0486287,None,0,N,True,266.23640000002524,0.5083933999990222,0.7748740999991242,243,220403,220670,220913,Correct,314.18151479999995,314.18151479999995,314.38155670000003,,,,,,,,,,,,,,,,,,,,,,,,,,,,,,,,,,,,,384,19,f,y,2022-11-02_13h08.55.121,Prime-Probe,2022.2.4,60.11255474751757,
Test,Visual_Stimuli/D_Left.png,Visual_Stimuli/T_Left.png,f,Congruent,Incongruent,0,1,0,1,6,,,,,,,,,0,20,20,20,,,,,,,,,,,,,,,,,,,,,,,,,,,,,,,,,,,,,,,,,,,,,,,,,,,,,,,,,,,,,0.007652399998960391,314.8816023999999,314.84846259999983,314.98132899999985,315.11483999999984,315.2478708,None,0,F,True,266.5210999998635,0.5080819999989217,0.7742133999990983,237,223604,223870,224107,Correct,317.38094569999987,317.38094569999987,317.5810301,,,,,,,,,,,,,,,,,,,,,,,,,,,,,,,,,,,,,384,19,f,y,2022-11-02_13h08.55.121,Prime-Probe,2022.2.4,60.11255474751757,
Test,Visual_Stimuli/D_Down.png,Visual_Stimuli/T_Down.png,n,Congruent,Congruent,4,2,4,2,10,,,,,,,,,0,21,21,21,,,,,,,,,,,,,,,,,,,,,,,,,,,,,,,,,,,,,,,,,,,,,,,,,,,,,,,,,,,,,0.007084599998961494,318.08119409999983,318.04783970000005,318.1809288999999,318.31480839999983,318.44751080000003,None,0,N,True,299.6845000000121,0.5075340999990203,0.7738534999989497,270,226802,227068,227338,Correct,320.58080469999993,320.58080469999993,320.78057839999985,,,,,,,,,,,,,,,,,,,,,,,,,,,,,,,,,,,,,384,19,f,y,2022-11-02_13h08.55.121,Prime-Probe,2022.2.4,60.11255474751757,
Test,Visual_Stimuli/D_Left.png,Visual_Stimuli/T_Right.png,g,Incongruent,Congruent,0,1,1,0,7,,,,,,,,,0,22,22,22,,,,,,,,,,,,,,,,,,,,,,,,,,,,,,,,,,,,,,,,,,,,,,,,,,,,,,,,,,,,,0.006630299998960254,321.28079560000003,321.24763199999995,321.38067119999994,321.5141388999999,321.64732990000005,None,0,G,True,333.1092999999328,0.5072052999989864,0.7734172999989823,298,230002,230269,230567,Correct,323.7807257999999,323.7807257999999,323.9802246999999,,,,,,,,,,,,,,,,,,,,,,,,,,,,,,,,,,,,,384,19,f,y,2022-11-02_13h08.55.121,Prime-Probe,2022.2.4,60.11255474751757,
Test,Visual_Stimuli/D_Down.png,Visual_Stimuli/T_Up.png,j,Incongruent,Incongruent,4,2,2,4,8,,,,,,,,,0,23,23,23,,,,,,,,,,,,,,,,,,,,,,,,,,,,,,,,,,,,,,,,,,,,,,,,,,,,,,,,,,,,,0.00628069999879699,324.48050290000003,324.4471324,324.58018849999996,324.71393449999994,324.8469761,None,0,J,True,483.3544999999049,0.5069248999989213,0.7730436999988797,449,233202,233467,233916,Correct,326.9799878,326.9799878,327.17998379999983,,,,,,,,,,,,,,,,,,,,,,,,,,,,,,,,,,,,,384,19,f,y,2022-11-02_13h08.55.121,Prime-Probe,2022.2.4,60.11255474751757,
Test,Visual_Stimuli/D_Right.png,Visual_Stimuli/T_Left.png,f,Incongruent,Incongruent,1,0,0,1,6,,,,,,,,,0,24,24,24,,,,,,,,,,,,,,,,,,,,,,,,,,,,,,,,,,,,,,,,,,,,,,,,,,,,,,,,,,,,,0.006038999998736472,327.68055489999995,327.64680379999993,327.77985120000005,327.91340660000003,328.04643309999994,None,0,F,True,333.14870000003793,0.506950999998935,0.7726734999987457,303,236401,236667,236970,Correct,330.1795043999999,330.1795043999999,330.3795019999999,,,,,,,,,,,,,,,,,,,,,,,,,,,,,,,,,,,,,384,19,f,y,2022-11-02_13h08.55.121,Prime-Probe,2022.2.4,60.11255474751757,
Test,Visual_Stimuli/D_Up.png,Visual_Stimuli/T_Up.png,j,Congruent,Incongruent,2,4,2,4,8,,,,,,,,,0,25,25,25,,,,,,,,,,,,,,,,,,,,,,,,,,,,,,,,,,,,,,,,,,,,,,,,,,,,,,,,,,,,,0.005554699998810975,330.8796544999999,330.8463943999999,330.9794845,331.11328939999987,331.24612249999984,None,0,J,True,266.3716999998087,0.5060248999986925,0.7726389999988896,230,239601,239867,240097,Correct,333.37915179999993,333.37915179999993,333.5791321999999,,,,,,,,,,,,,,,,,,,,,,,,,,,,,,,,,,,,,384,19,f,y,2022-11-02_13h08.55.121,Prime-Probe,2022.2.4,60.11255474751757,
Test,Visual_Stimuli/D_Right.png,Visual_Stimuli/T_Right.png,g,Congruent,Congruent,1,0,1,0,7,,,,,,,,,0,26,26,26,,,,,,,,,,,,,,,,,,,,,,,,,,,,,,,,,,,,,,,,,,,,,,,,,,,,,,,,,,,,,0.005186399998819979,334.07935839999993,334.0460231999999,334.1792449999999,334.31264739999995,334.4455557,None,0,G,True,166.32479999998395,0.5057483999987653,0.772040099998776,134,242799,243066,243200,Correct,336.5787879999999,336.5787879999999,336.77869899999985,,,,,,,,,,,,,,,,,,,,,,,,,,,,,,,,,,,,,384,19,f,y,2022-11-02_13h08.55.121,Prime-Probe,2022.2.4,60.11255474751757,
Test,Visual_Stimuli/D_Down.png,Visual_Stimuli/T_Down.png,n,Congruent,Congruent,4,2,4,2,10,,,,,,,,,0,27,27,27,,,,,,,,,,,,,,,,,,,,,,,,,,,,,,,,,,,,,,,,,,,,,,,,,,,,,,,,,,,,,0.004753099998652033,337.27887299999986,337.24563950000004,337.37869349999994,337.51231070000006,337.645308,None,0,N,True,216.88639999979387,0.5053104999988136,0.7716319999988173,182,245999,246266,246448,Correct,339.77843789999986,339.77843789999986,339.9784547999999,,,,,,,,,,,,,,,,,,,,,,,,,,,,,,,,,,,,,384,19,f,y,2022-11-02_13h08.55.121,Prime-Probe,2022.2.4,60.11255474751757,
Test,Visual_Stimuli/D_Left.png,Visual_Stimuli/T_Left.png,f,Congruent,Congruent,0,1,0,1,6,,,,,,,,,0,28,28,28,,,,,,,,,,,,,,,,,,,,,,,,,,,,,,,,,,,,,,,,,,,,,,,,,,,,,,,,,,,,,0.0045222999985981005,340.4786751999999,340.44561280000005,340.5784118999999,340.71213739999996,340.84514249999995,None,0,F,True,150.30419999993683,0.5051070999986678,0.7712179999987256,113,249200,249466,249579,Correct,342.9781598999999,342.9781598999999,343.17815029999986,,,,,,,,,,,,,,,,,,,,,,,,,,,,,,,,,,,,,384,19,f,y,2022-11-02_13h08.55.121,Prime-Probe,2022.2.4,60.11255474751757,
Test,Visual_Stimuli/D_Up.png,Visual_Stimuli/T_Down.png,n,Incongruent,Congruent,2,4,4,2,10,,,,,,,,,0,29,29,29,,,,,,,,,,,,,,,,,,,,,,,,,,,,,,,,,,,,,,,,,,,,,,,,,,,,,,,,,,,,,0.004219299998567294,343.6782227,343.6449254999999,343.77823479999995,343.91155189999984,344.04486039999995,None,0,N,True,316.30040000004556,0.5046478999986448,0.7709712999985641,285,252398,252664,252949,Correct,346.1777564,346.1777564,346.37763289999987,,,,,,,,,,,,,,,,,,,,,,,,,,,,,,,,,,,,,384,19,f,y,2022-11-02_13h08.55.121,Prime-Probe,2022.2.4,60.11255474751757,
Test,Visual_Stimuli/D_Right.png,Visual_Stimuli/T_Right.png,g,Congruent,Incongruent,1,0,1,0,7,,,,,,,,,0,30,30,30,,,,,,,,,,,,,,,,,,,,,,,,,,,,,,,,,,,,,,,,,,,,,,,,,,,,,,,,,,,,,0.0036854999984825554,346.8777423,346.8445983999999,346.9777826999999,347.11117279999996,347.2441505999999,None,0,G,True,266.5572000000793,0.5040995999986535,0.7705181999986053,237,255598,255865,256102,Correct,349.37729939999997,349.37729939999997,349.57732610000005,,,,,,,,,,,,,,,,,,,,,,,,,,,,,,,,,,,,,384,19,f,y,2022-11-02_13h08.55.121,Prime-Probe,2022.2.4,60.11255474751757,
Test,Visual_Stimuli/D_Down.png,Visual_Stimuli/T_Down.png,n,Congruent,Congruent,4,2,4,2,10,,,,,,,,,0,31,31,31,,,,,,,,,,,,,,,,,,,,,,,,,,,,,,,,,,,,,,,,,,,,,,,,,,,,,,,,,,,,,0.0033786999986205046,350.07752289999996,350.0441296,350.1771737999999,350.3108057999999,350.4439036,None,0,N,True,366.42189999997754,0.5039396999984547,0.7701756999986173,341,258798,259063,259404,Correct,352.5769468,352.5769468,352.77684379999994,,,,,,,,,,,,,,,,,,,,,,,,,,,,,,,,,,,,,384,19,f,y,2022-11-02_13h08.55.121,Prime-Probe,2022.2.4,60.11255474751757,
Test,Visual_Stimuli/D_Left.png,Visual_Stimuli/T_Left.png,f,Congruent,Congruent,0,1,0,1,6,,,,,,,,,0,32,32,32,,,,,,,,,,,,,,,,,,,,,,,,,,,,,,,,,,,,,,,,,,,,,,,,,,,,,,,,,,,,,0.002898699998468146,353.27720179999994,353.2437905999999,353.3768179,353.5105270999999,353.64347839999994,None,0,F,True,133.0740999999307,0.5035444999984975,0.7698256999985915,107,261997,262263,262370,Correct,355.7765828999999,355.7765828999999,355.97644290000005,,,,,,,,,,,,,,,,,,,,,,,,,,,,,,,,,,,,,384,19,f,y,2022-11-02_13h08.55.121,Prime-Probe,2022.2.4,60.11255474751757,
Test,Visual_Stimuli/D_Up.png,Visual_Stimuli/T_Up.png,j,Congruent,Congruent,2,4,2,4,8,,,,,,,,,0,33,33,33,,,,,,,,,,,,,,,,,,,,,,,,,,,,,,,,,,,,,,,,,,,,,,,,,,,,,,,,,,,,,0.0025022999984685157,356.4768877999999,356.44339649999995,356.5764582999999,356.7102532,356.84312209999996,None,0,J,True,283.1098000001475,0.5033187999983966,0.7693266999983734,257,265197,265463,265720,Correct,358.97625349999987,358.97625349999987,359.1762356999999,,,,,,,,,,,,,,,,,,,,,,,,,,,,,,,,,,,,,384,19,f,y,2022-11-02_13h08.55.121,Prime-Probe,2022.2.4,60.11255474751757,
Test,Visual_Stimuli/D_Left.png,Visual_Stimuli/T_Left.png,f,Congruent,Congruent,0,1,0,1,6,,,,,,,,,0,34,34,34,,,,,,,,,,,,,,,,,,,,,,,,,,,,,,,,,,,,,,,,,,,,,,,,,,,,,,,,,,,,,0.0022896999983004207,359.67659820000006,359.64307799999995,359.77617509999993,359.909894,360.04302559999985,None,0,F,True,183.03480000008676,0.503030499998431,0.7691432999984045,148,268395,268664,268812,Correct,362.17632979999996,362.17632979999996,362.3757506999999,,,,,,,,,,,,,,,,,,,,,,,,,,,,,,,,,,,,,384,19,f,y,2022-11-02_13h08.55.121,Prime-Probe,2022.2.4,60.11255474751757,
Test,Visual_Stimuli/D_Down.png,Visual_Stimuli/T_Up.png,j,Incongruent,Congruent,4,2,2,4,8,,,,,,,,,0,35,35,35,,,,,,,,,,,,,,,,,,,,,,,,,,,,,,,,,,,,,,,,,,,,,,,,,,,,,,,,,,,,,0.0018038999983218673,362.87599339999986,362.84285420000003,362.9757421999999,363.1094574,363.24254570000005,None,0,N,False,149.7312999999849,0.5024499999983618,0.7688027999984115,118,271595,271862,271980,Incorrect,365.37562089999994,365.37562089999994,365.5753094999999,,,,,,,,,,,,,,,,,,,,,,,,,,,,,,,,,,,,,384,19,f,y,2022-11-02_13h08.55.121,Prime-Probe,2022.2.4,60.11255474751757,
Test,Visual_Stimuli/D_Left.png,Visual_Stimuli/T_Right.png,g,Incongruent,Incongruent,0,1,1,0,7,,,,,,,,,0,36,36,36,,,,,,,,,,,,,,,,,,,,,,,,,,,,,,,,,,,,,,,,,,,,,,,,,,,,,,,,,,,,,0.0013663999982327368,366.07545789999983,366.0425342,366.17547909999996,366.3089116,366.4419750999999,None,0,F,False,99.3750000000091,0.501778799998192,0.7687092999983633,67,274796,275062,275129,Incorrect,368.57514630000003,368.57514630000003,368.775033,,,,,,,,,,,,,,,,,,,,,,,,,,,,,,,,,,,,,384,19,f,y,2022-11-02_13h08.55.121,Prime-Probe,2022.2.4,60.11255474751757,
Test,Visual_Stimuli/D_Down.png,Visual_Stimuli/T_Down.png,n,Congruent,Incongruent,4,2,4,2,10,,,,,,,,,0,37,37,37,,,,,,,,,,,,,,,,,,,,,,,,,,,,,,,,,,,,,,,,,,,,,,,,,,,,,,,,,,,,,0.0010978999982853566,369.27515789999995,369.2421197,369.37501669999995,369.5085857999999,369.6417966999999,None,0,N,True,399.74069999993844,0.5015179999982138,0.7679313999983606,379,277994,278260,278639,Correct,371.77476420000005,371.77476420000005,371.9746451,,,,,,,,,,,,,,,,,,,,,,,,,,,,,,,,,,,,,384,19,f,y,2022-11-02_13h08.55.121,Prime-Probe,2022.2.4,60.11255474751757,
Test,Visual_Stimuli/D_Left.png,Visual_Stimuli/T_Right.png,g,Incongruent,Congruent,0,1,1,0,7,,,,,,,,,0,38,38,38,,,,,,,,,,,,,,,,,,,,,,,,,,,,,,,,,,,,,,,,,,,,,,,,,,,,,,,,,,,,,0.0007144999981392175,372.4750880999999,372.44156339999984,372.5746255,372.7083414,372.8412863,None,0,G,True,416.3568999999825,0.501581699998269,0.767806899998277,387,281194,281461,281848,Correct,374.9743267,374.9743267,375.17428099999995,,,,,,,,,,,,,,,,,,,,,,,,,,,,,,,,,,,,,384,19,f,y,2022-11-02_13h08.55.121,Prime-Probe,2022.2.4,60.11255474751757,
Test,Visual_Stimuli/D_Down.png,Visual_Stimuli/T_Down.png,n,Congruent,Incongruent,4,2,4,2,10,,,,,,,,,0,39,39,39,,,,,,,,,,,,,,,,,,,,,,,,,,,,,,,,,,,,,,,,,,,,,,,,,,,,,,,,,,,,,0.00035419999812802416,375.67442419999986,375.64125909999996,375.7742201,375.9078120999999,376.0408117999999,None,0,N,True,249.70319999988533,0.5008382999981222,0.7671859999982189,224,284393,284659,284883,Correct,378.1741481,378.1741481,378.37395949999984,,,,,,,,,,,,,,,,,,,,,,,,,,,,,,,,,,,,,384,19,f,y,2022-11-02_13h08.55.121,Prime-Probe,2022.2.4,60.11255474751757,
Test,Visual_Stimuli/D_Right.png,Visual_Stimuli/T_Left.png,f,Incongruent,Congruent,1,0,0,1,6,,,,,,,,,0,40,40,40,,,,,,,,,,,,,,,,,,,,,,,,,,,,,,,,,,,,,,,,,,,,,,,,,,,,,,,,,,,,,1.519999818810902e-05,378.87415610000005,378.84103930000003,378.9739094999999,379.1074634999999,379.24075759999994,None,0,F,True,316.287500000044,0.5005629999980101,0.766921499998034,295,287593,287859,288154,Correct,381.37359430000004,381.37359430000004,381.5737819,,,,,,,,,,,,,,,,,,,,,,,,,,,,,,,,,,,,,384,19,f,y,2022-11-02_13h08.55.121,Prime-Probe,2022.2.4,60.11255474751757,
Test,Visual_Stimuli/D_Down.png,Visual_Stimuli/T_Up.png,j,Incongruent,Incongruent,4,2,2,4,8,,,,,,,,,0,41,41,41,,,,,,,,,,,,,,,,,,,,,,,,,,,,,,,,,,,,,,,,,,,,,,,,,,,,,,,,,,,,,-0.0001513000020167965,382.07382569999993,382.04052019999983,382.17349090000005,382.30708389999984,382.4401314999999,None,0,J,True,383.2108999999946,0.5001800999980333,0.7831304999981512,350,290793,291075,291425,Correct,384.57319799999993,384.57319799999993,384.7732711,,,,,,,,,,,,,,,,,,,,,,,,,,,,,,,,,,,,,384,19,f,y,2022-11-02_13h08.55.121,Prime-Probe,2022.2.4,60.11255474751757,
Test,Visual_Stimuli/D_Left.png,Visual_Stimuli/T_Left.png,f,Congruent,Incongruent,0,1,0,1,6,,,,,,,,,0,42,42,42,,,,,,,,,,,,,,,,,,,,,,,,,,,,,,,,,,,,,,,,,,,,,,,,,,,,,,,,,,,,,-0.0006743000019469036,385.2732929,385.2402071999999,385.3730927999999,385.50673689999996,385.6397601,None,0,F,True,249.63769999999386,0.5160128999980316,0.782731899997998,220,294009,294275,294495,Correct,387.78945629999987,387.77283869999985,387.9896301,,,,,,,,,,,,,,,,,,,,,,,,,,,,,,,,,,,,,384,19,f,y,2022-11-02_13h08.55.121,Prime-Probe,2022.2.4,60.11255474751757,
Test,Visual_Stimuli/D_Down.png,Visual_Stimuli/T_Up.png,j,Incongruent,Congruent,4,2,2,4,8,,,,,,,,,0,43,43,43,,,,,,,,,,,,,,,,,,,,,,,,,,,,,,,,,,,,,,,,,,,,,,,,,,,,,,,,,,,,,-0.00016570000207138946,388.4732439999999,388.4564245999999,388.5894969,388.7229541999999,388.85607059999995,None,0,J,True,300.16810000006444,0.516034899997976,0.7823218999978963,277,297207,297474,297751,Correct,390.98925829999996,390.97264459999985,391.1896023999999,,,,,,,,,,,,,,,,,,,,,,,,,,,,,,,,,,,,,384,19,f,y,2022-11-02_13h08.55.121,Prime-Probe,2022.2.4,60.11255474751757,
Test,Visual_Stimuli/D_Right.png,Visual_Stimuli/T_Left.png,f,Incongruent,Incongruent,1,0,0,1,6,,,,,,,,,0,44,44,44,,,,,,,,,,,,,,,,,,,,,,,,,,,,,,,,,,,,,,,,,,,,,,,,,,,,,,,,,,,,,-0.0003040000019609579,391.68947560000004,391.65604789999986,391.7890939,391.9227196999999,392.05565449999983,None,0,F,True,249.73739999995814,0.5158511999979964,0.7819467999979679,229,300407,300674,300903,Correct,394.18892489999996,394.18892489999996,394.38870940000004,,,,,,,,,,,,,,,,,,,,,,,,,,,,,,,,,,,,,384,19,f,y,2022-11-02_13h08.55.121,Prime-Probe,2022.2.4,60.11255474751757,
Test,Visual_Stimuli/D_Down.png,Visual_Stimuli/T_Up.png,j,Incongruent,Incongruent,4,2,2,4,8,,,,,,,,,0,45,45,45,,,,,,,,,,,,,,,,,,,,,,,,,,,,,,,,,,,,,,,,,,,,,,,,,,,,,,,,,,,,,-0.00038510000217684137,394.88898329999995,394.8556476,394.9887616,395.1225071,395.25545079999995,None,0,J,True,333.06350000020757,0.5153144999978849,0.7817338999977892,305,303606,303872,304177,Correct,397.3885265,397.3885265,397.58839350000005,,,,,,,,,,,,,,,,,,,,,,,,,,,,,,,,,,,,,384,19,f,y,2022-11-02_13h08.55.121,Prime-Probe,2022.2.4,60.11255474751757,
Test,Visual_Stimuli/D_Right.png,Visual_Stimuli/T_Left.png,f,Incongruent,Incongruent,1,0,0,1,6,,,,,,,,,0,46,46,46,,,,,,,,,,,,,,,,,,,,,,,,,,,,,,,,,,,,,,,,,,,,,,,,,,,,,,,,,,,,,-0.0009404000020367675,398.0896443999999,398.05540439999993,398.1882204,398.32193799999993,398.4548641,None,0,F,True,299.8331999999664,0.5164738999978908,0.7811703999977908,268,306806,307072,307340,Correct,400.60471700000005,,,,,,,,,,,,,,,,,,,,,,,,,,,,,,,,,,,,,,,384,19,f,y,2022-11-02_13h08.55.121,Prime-Probe,2022.2.4,60.11255474751757,
Test,Visual_Stimuli/D_Down.png,Visual_Stimuli/T_Down.png,n,Congruent,Incongruent,4,2,4,2,10,,,,,,,,,0,47,47,47,,,,,,,,,,,,,,,,,,,,,,,,,,,,,,,,,,,,,,,,,,,,,,,,,,,,,,,,,,,,,0.014996399997698973,401.2884370999999,401.2552612999999,401.38796979999995,401.5216472999999,401.65450899999985,None,0,N,True,299.79819999994106,0.5148749999978008,0.7809866999978112,273,310006,310273,310546,Correct,403.7876307999999,403.7876307999999,403.98762479999994,,,,,,,,,,,,,,,,,,,,,,,,,,,,,,,,,,,,,384,19,f,y,2022-11-02_13h08.55.121,Prime-Probe,2022.2.4,60.11255474751757,
Test,Visual_Stimuli/D_Left.png,Visual_Stimuli/T_Right.png,g,Incongruent,Congruent,0,1,1,0,7,,,,,,,,,0,48,48,48,,,,,,,,,,,,,,,,,,,,,,,,,,,,,,,,,,,,,,,,,,,,,,,,,,,,,,,,,,,,,0.01367809999783276,404.48777259999986,404.4545975,404.58741840000005,404.7211119,404.85431979999987,None,0,F,False,100.07560000008198,0.5141548999977203,0.780390999997735,68,313204,313473,313541,Incorrect,406.9873971999999,406.9873971999999,407.1872264,,,,,,,,,,,,,,,,,,,,,,,,,,,,,,,,,,,,,384,19,f,y,2022-11-02_13h08.55.121,Prime-Probe,2022.2.4,60.11255474751757,
Test,Visual_Stimuli/D_Down.png,Visual_Stimuli/T_Down.png,n,Congruent,Incongruent,4,2,4,2,10,,,,,,,,,0,49,49,49,,,,,,,,,,,,,,,,,,,,,,,,,,,,,,,,,,,,,,,,,,,,,,,,,,,,,,,,,,,,,0.013282699997716918,407.68768450000005,407.65420719999986,407.78724409999984,407.9207734999999,408.0539319999999,None,0,N,True,299.6269999998731,0.5140377999978227,0.7801473999977588,279,316405,316671,316950,Correct,410.1868372,410.1868372,410.3869263999999,,,,,,,,,,,,,,,,,,,,,,,,,,,,,,,,,,,,,384,19,f,y,2022-11-02_13h08.55.121,Prime-Probe,2022.2.4,60.11255474751757,
Test,Visual_Stimuli/D_Right.png,Visual_Stimuli/T_Right.png,g,Congruent,Congruent,1,0,1,0,7,,,,,,,,,0,50,50,50,,,,,,,,,,,,,,,,,,,,,,,,,,,,,,,,,,,,,,,,,,,,,,,,,,,,,,,,,,,,,0.012990199997602758,410.88716050000005,410.85407010000006,410.98684919999994,411.12040979999995,411.2534222999999,None,0,G,True,316.6284999999789,0.5135114999977759,0.7797229999976025,283,319605,319871,320154,Correct,413.3867228999999,413.3867228999999,413.5865791,,,,,,,,,,,,,,,,,,,,,,,,,,,,,,,,,,,,,384,19,f,y,2022-11-02_13h08.55.121,Prime-Probe,2022.2.4,60.11255474751757,
Test,Visual_Stimuli/D_Up.png,Visual_Stimuli/T_Up.png,j,Congruent,Congruent,2,4,2,4,8,,,,,,,,,0,51,51,51,,,,,,,,,,,,,,,,,,,,,,,,,,,,,,,,,,,,,,,,,,,,,,,,,,,,,,,,,,,,,0.012642199997571879,414.08685149999985,414.05342399999984,414.18645490000006,414.3204617,414.4532997,None,0,J,True,366.62239999986923,0.5132455999976173,0.7794286999976521,333,322803,323070,323403,Correct,416.58614039999986,416.58614039999986,416.78606019999995,,,,,,,,,,,,,,,,,,,,,,,,,,,,,,,,,,,,,384,19,f,y,2022-11-02_13h08.55.121,Prime-Probe,2022.2.4,60.11255474751757,
Test,Visual_Stimuli/D_Left.png,Visual_Stimuli/T_Left.png,f,Congruent,Congruent,0,1,0,1,6,,,,,,,,,0,52,52,52,,,,,,,,,,,,,,,,,,,,,,,,,,,,,,,,,,,,,,,,,,,,,,,,,,,,,,,,,,,,,0.012147299997650407,417.2863435999999,417.25304470000003,417.3860693999999,417.51971760000004,417.6527634999999,None,0,F,True,282.88769999994656,0.5127678999974705,0.779136099997686,251,326004,326270,326521,Correct,419.7858347,419.7858347,419.9858547,,,,,,,,,,,,,,,,,,,,,,,,,,,,,,,,,,,,,384,19,f,y,2022-11-02_13h08.55.121,Prime-Probe,2022.2.4,60.11255474751757,
Test,Visual_Stimuli/D_Down.png,Visual_Stimuli/T_Up.png,j,Incongruent,Congruent,4,2,2,4,8,,,,,,,,,0,53,53,53,,,,,,,,,,,,,,,,,,,,,,,,,,,,,,,,,,,,,,,,,,,,,,,,,,,,,,,,,,,,,0.011904999997568666,420.4859763999999,420.4532430999999,420.5861206999999,420.7191882999999,420.8525443,None,0,J,True,382.6641999999083,0.5123456999974678,0.7790029999976014,353,329202,329468,329821,Correct,422.9854116,422.9854116,423.1853290999999,,,,,,,,,,,,,,,,,,,,,,,,,,,,,,,,,,,,,384,19,f,y,2022-11-02_13h08.55.121,Prime-Probe,2022.2.4,60.11255474751757,
Test,Visual_Stimuli/D_Left.png,Visual_Stimuli/T_Left.png,f,Congruent,Incongruent,0,1,0,1,6,,,,,,,,,0,54,54,54,,,,,,,,,,,,,,,,,,,,,,,,,,,,,,,,,,,,,,,,,,,,,,,,,,,,,,,,,,,,,0.011380399997506174,423.6855729,423.65214789999993,423.7853239,423.91886710000006,424.0520719,None,0,F,True,282.7763000000232,0.5120141999975658,0.7785243999974227,252,332402,332669,332921,Correct,426.18511019999994,426.18511019999994,426.38504550000005,,,,,,,,,,,,,,,,,,,,,,,,,,,,,,,,,,,,,384,19,f,y,2022-11-02_13h08.55.121,Prime-Probe,2022.2.4,60.11255474751757,
Test,Visual_Stimuli/D_Up.png,Visual_Stimuli/T_Up.png,j,Congruent,Congruent,2,4,2,4,8,,,,,,,,,0,55,55,55,,,,,,,,,,,,,,,,,,,,,,,,,,,,,,,,,,,,,,,,,,,,,,,,,,,,,,,,,,,,,0.011113099997373865,426.88531679999994,426.85197860000005,426.98500720000004,427.11860779999995,427.2515445999999,None,0,J,True,483.01939999987553,0.5116688999974031,0.7780624999975316,459,335602,335869,336328,Correct,429.3847935,429.3847935,429.5846820999999,,,,,,,,,,,,,,,,,,,,,,,,,,,,,,,,,,,,,384,19,f,y,2022-11-02_13h08.55.121,Prime-Probe,2022.2.4,60.11255474751757,
Test,Visual_Stimuli/D_Left.png,Visual_Stimuli/T_Right.png,g,Incongruent,Congruent,0,1,1,0,7,,,,,,,,,0,56,56,56,,,,,,,,,,,,,,,,,,,,,,,,,,,,,,,,,,,,,,,,,,,,,,,,,,,,,,,,,,,,,0.010755099997368234,430.0848152,430.0516059999999,430.18454429999986,430.31832069999984,430.45124929999986,None,0,F,False,99.87679999994725,0.5111682999975073,0.7774603999973806,71,338801,339067,339138,Incorrect,432.58435829999996,432.58435829999996,432.78423439999995,,,,,,,,,,,,,,,,,,,,,,,,,,,,,,,,,,,,,384,19,f,y,2022-11-02_13h08.55.121,Prime-Probe,2022.2.4,60.11255474751757,
Test,Visual_Stimuli/D_Down.png,Visual_Stimuli/T_Up.png,j,Incongruent,Incongruent,4,2,2,4,8,,,,,,,,,0,57,57,57,,,,,,,,,,,,,,,,,,,,,,,,,,,,,,,,,,,,,,,,,,,,,,,,,,,,,,,,,,,,,0.010325299997248294,433.28448519999995,433.251163,433.38434900000004,433.51810869999997,433.6509442999999,None,0,J,True,349.8113000000558,0.5108900999973685,0.7771581999973023,318,342001,342267,342585,Correct,435.78393730000005,435.78393730000005,435.9839037999999,,,,,,,,,,,,,,,,,,,,,,,,,,,,,,,,,,,,,384,19,f,y,2022-11-02_13h08.55.121,Prime-Probe,2022.2.4,60.11255474751757,
Test,Visual_Stimuli/D_Right.png,Visual_Stimuli/T_Right.png,g,Congruent,Incongruent,1,0,1,0,7,,,,,,,,,0,58,58,58,,,,,,,,,,,,,,,,,,,,,,,,,,,,,,,,,,,,,,,,,,,,,,,,,,,,,,,,,,,,,0.009955499997204242,436.4840544,436.4508508,436.5838275,436.71748019999984,436.85059779999995,None,0,G,True,466.29540000003544,0.5104940999972314,0.7768380999973488,433,345199,345466,345899,Correct,438.98351939999986,438.98351939999986,439.1835247999999,,,,,,,,,,,,,,,,,,,,,,,,,,,,,,,,,,,,,384,19,f,y,2022-11-02_13h08.55.121,Prime-Probe,2022.2.4,60.11255474751757,
Test,Visual_Stimuli/D_Up.png,Visual_Stimuli/T_Down.png,n,Incongruent,Congruent,2,4,4,2,10,,,,,,,,,0,59,59,59,,,,,,,,,,,,,,,,,,,,,,,,,,,,,,,,,,,,,,,,,,,,,,,,,,,,,,,,,,,,,0.00957969999717534,439.6836987999999,439.65065749999997,439.7834669,439.91714160000004,440.05007379999995,None,0,N,True,332.52790000005916,0.5101483999972061,0.7769571999972413,297,348399,348666,348963,Correct,442.1831745999999,442.1831745999999,442.3832523,,,,,,,,,,,,,,,,,,,,,,,,,,,,,,,,,,,,,384,19,f,y,2022-11-02_13h08.55.121,Prime-Probe,2022.2.4,60.11255474751757,
Test,Visual_Stimuli/D_Left.png,Visual_Stimuli/T_Right.png,g,Incongruent,Incongruent,0,1,1,0,7,,,,,,,,,0,60,60,60,,,,,,,,,,,,,,,,,,,,,,,,,,,,,,,,,,,,,,,,,,,,,,,,,,,,,,,,,,,,,0.009351299997206297,442.8832971999999,442.8500998999999,442.9830782999999,443.1167532999999,443.24994460000005,None,0,G,True,399.60389999987456,0.5096977999971841,0.7761715999972694,369,351600,351866,352235,Correct,445.38288750000004,445.38288750000004,445.58274289999997,,,,,,,,,,,,,,,,,,,,,,,,,,,,,,,,,,,,,384,19,f,y,2022-11-02_13h08.55.121,Prime-Probe,2022.2.4,60.11255474751757,
Test,Visual_Stimuli/D_Down.png,Visual_Stimuli/T_Up.png,j,Incongruent,Incongruent,4,2,2,4,8,,,,,,,,,0,61,61,61,,,,,,,,,,,,,,,,,,,,,,,,,,,,,,,,,,,,,,,,,,,,,,,,,,,,,,,,,,,,,0.008794699997224598,446.0829705,446.04971709999984,446.1828569999999,446.3163553999999,446.4494552,None,0,J,True,333.23380000001634,0.5093528999971113,0.7758563999971102,299,354798,355064,355363,Correct,448.58247659999995,448.58247659999995,448.78234659999987,,,,,,,,,,,,,,,,,,,,,,,,,,,,,,,,,,,,,384,19,f,y,2022-11-02_13h08.55.121,Prime-Probe,2022.2.4,60.11255474751757,
Test,Visual_Stimuli/D_Left.png,Visual_Stimuli/T_Right.png,g,Incongruent,Incongruent,0,1,1,0,7,,,,,,,,,0,62,62,62,,,,,,,,,,,,,,,,,,,,,,,,,,,,,,,,,,,,,,,,,,,,,,,,,,,,,,,,,,,,,0.00840019999714059,449.2826067,449.24930129999996,449.3829021999999,449.5159932999999,449.6494174999999,None,0,G,True,333.00359999998363,0.50897229999714,0.7753021999972134,308,357998,358265,358573,Correct,451.7820906999999,451.7820906999999,451.9820071999999,,,,,,,,,,,,,,,,,,,,,,,,,,,,,,,,,,,,,384,19,f,y,2022-11-02_13h08.55.121,Prime-Probe,2022.2.4,60.11255474751757,
Test,Visual_Stimuli/D_Up.png,Visual_Stimuli/T_Up.png,j,Congruent,Incongruent,2,4,2,4,8,,,,,,,,,0,63,63,63,,,,,,,,,,,,,,,,,,,,,,,,,,,,,,,,,,,,,,,,,,,,,,,,,,,,,,,,,,,,,0.008098799997014794,452.48328019999997,452.44897690000005,452.5820107999999,452.7157745999999,452.8485895,None,0,J,True,299.89869999985785,0.5096758999970916,0.7748709999971197,273,361197,361465,361738,Correct,454.99842980000005,,,,,,,,,,,,,,,,,,,,,,,,,,,,,,,,,,,,,,,384,19,f,y,2022-11-02_13h08.55.121,Prime-Probe,2022.2.4,60.11255474751757,
Test,Visual_Stimuli/D_Right.png,Visual_Stimuli/T_Left.png,f,Incongruent,Congruent,1,0,0,1,6,,,,,,,,,0,64,64,64,,,,,,,,,,,,,,,,,,,,,,,,,,,,,,,,,,,,,,,,,,,,,,,,,,,,,,,,,,,,,0.008571299997129245,455.68205209999985,455.64878020000003,455.78167700000006,455.9152333999999,456.04823969999995,None,0,F,True,316.6845000000649,0.5085333999970771,0.7745468999969489,283,364397,364663,364946,Correct,458.1812896,458.1812896,458.3816103999999,,,,,,,,,,,,,,,,,,,,,,,,,,,,,,,,,,,,,384,19,f,y,2022-11-02_13h08.55.121,Prime-Probe,2022.2.4,60.11255474751757,
Test,Visual_Stimuli/D_Up.png,Visual_Stimuli/T_Up.png,j,Congruent,Incongruent,2,4,2,4,8,,,,,,,,,0,65,65,65,,,,,,,,,,,,,,,,,,,,,,,,,,,,,,,,,,,,,,,,,,,,,,,,,,,,,,,,,,,,,0.007757199997058706,458.8814724,458.8482401,458.9812346,459.1149096999999,459.24789780000003,None,0,J,True,366.19629999995595,0.5078320999969037,0.7743443999970623,339,367597,367864,368203,Correct,461.3812899999999,461.3812899999999,461.58098759999996,,,,,,,,,,,,,,,,,,,,,,,,,,,,,,,,,,,,,384,19,f,y,2022-11-02_13h08.55.121,Prime-Probe,2022.2.4,60.11255474751757,
Test,Visual_Stimuli/D_Left.png,Visual_Stimuli/T_Right.png,g,Incongruent,Congruent,0,1,1,0,7,,,,,,,,,0,66,66,66,,,,,,,,,,,,,,,,,,,,,,,,,,,,,,,,,,,,,,,,,,,,,,,,,,,,,,,,,,,,,0.00704389999691557,462.0811118999999,462.04780519999997,462.1810792,462.31451949999985,462.44755099999986,None,0,G,True,349.89569999993364,0.5074958999969112,0.7738157999970099,316,370795,371062,371378,Correct,464.5813826,464.5813826,464.78052190000005,,,,,,,,,,,,,,,,,,,,,,,,,,,,,,,,,,,,,384,19,f,y,2022-11-02_13h08.55.121,Prime-Probe,2022.2.4,60.11255474751757,
Test,Visual_Stimuli/D_Down.png,Visual_Stimuli/T_Up.png,j,Incongruent,Incongruent,4,2,2,4,8,,,,,,,,,0,67,67,67,,,,,,,,,,,,,,,,,,,,,,,,,,,,,,,,,,,,,,,,,,,,,,,,,,,,,,,,,,,,,0.006603599996878984,465.28079749999995,465.24761879999994,465.38042429999985,465.514092,465.6471685999999,None,0,J,True,299.69930000015665,0.5072344999969118,0.7734371999968062,270,373996,374262,374532,Correct,467.78024029999995,467.78024029999995,467.98012919999985,,,,,,,,,,,,,,,,,,,,,,,,,,,,,,,,,,,,,384,19,f,y,2022-11-02_13h08.55.121,Prime-Probe,2022.2.4,60.11255474751757,
Test,Visual_Stimuli/D_Right.png,Visual_Stimuli/T_Right.png,g,Congruent,Incongruent,1,0,1,0,7,,,,,,,,,0,68,68,68,,,,,,,,,,,,,,,,,,,,,,,,,,,,,,,,,,,,,,,,,,,,,,,,,,,,,,,,,,,,,0.0062394999968091724,468.4803352,468.4472093999999,468.5802465999999,468.71425809999994,468.8466273999999,None,0,G,True,316.4385999998558,0.5066797999968458,0.7730096999969192,297,377196,377460,377757,Correct,470.97979,470.97979,471.1800021,,,,,,,,,,,,,,,,,,,,,,,,,,,,,,,,,,,,,384,19,f,y,2022-11-02_13h08.55.121,Prime-Probe,2022.2.4,60.11255474751757,
Test,Visual_Stimuli/D_Up.png,Visual_Stimuli/T_Down.png,n,Incongruent,Congruent,2,4,4,2,10,,,,,,,,,0,69,69,69,,,,,,,,,,,,,,,,,,,,,,,,,,,,,,,,,,,,,,,,,,,,,,,,,,,,,,,,,,,,,0.006130699996901967,471.6801626,471.64672540000004,471.77976909999995,471.9133974,472.0464358999999,None,0,N,True,299.81070000008003,0.5066198999968492,0.7725956999968275,268,380394,380661,380929,Correct,474.1795937999999,474.1795937999999,474.3799771,,,,,,,,,,,,,,,,,,,,,,,,,,,,,,,,,,,,,384,19,f,y,2022-11-02_13h08.55.121,Prime-Probe,2022.2.4,60.11255474751757,
Test,Visual_Stimuli/D_Right.png,Visual_Stimuli/T_Left.png,f,Incongruent,Incongruent,1,0,0,1,6,,,,,,,,,0,70,70,70,,,,,,,,,,,,,,,,,,,,,,,,,,,,,,,,,,,,,,,,,,,,,,,,,,,,,,,,,,,,,0.0060667999966881325,474.8799358,474.84649349999984,474.97940329999994,475.11304529999995,475.2460284,None,0,F,True,349.68620000017836,0.5062743999967552,0.7722698999966724,316,383594,383861,384177,Correct,477.3792167999999,477.3792167999999,477.5791742,,,,,,,,,,,,,,,,,,,,,,,,,,,,,,,,,,,,,384,19,f,y,2022-11-02_13h08.55.121,Prime-Probe,2022.2.4,60.11255474751757,
Test,Visual_Stimuli/D_Up.png,Visual_Stimuli/T_Down.png,n,Incongruent,Incongruent,2,4,4,2,10,,,,,,,,,0,71,71,71,,,,,,,,,,,,,,,,,,,,,,,,,,,,,,,,,,,,,,,,,,,,,,,,,,,,,,,,,,,,,0.00522929999669941,478.07932059999996,478.0458811,478.1789946,478.31280059999983,478.4456429999999,None,0,N,True,299.80589999991025,0.5057000999966021,0.7718884999967486,267,386793,387061,387328,Correct,480.5789785999999,480.5789785999999,480.87259989999995,,,,,,,,,,,,,,,,,,,,,,,,,,,,,,,,,,,,,384,19,f,y,2022-11-02_13h08.55.121,Prime-Probe,2022.2.4,60.11255474751757,
,,,,,,,,,,,,,,,,,,,,,,,,,,,,,,,,,,,,,,,,,,,,,,,,,,,,,,,,,,,,,,,,,,,,,,,,,,,,,,,,,,,,,,,,,,,,,,,,,,,,,,,,,,,484.03408219999994,484.03408219999994,None,,,480.87259989999995,480.87259989999995,,,,,,,,,,,,,,,,,,,,,,,,,,,384,19,f,y,2022-11-02_13h08.55.121,Prime-Probe,2022.2.4,60.11255474751757,
Test,Visual_Stimuli/D_Right.png,Visual_Stimuli/T_Left.png,f,Incongruent,None,1,0,0,1,6,,,,,,,,,,,,,0,0,0,0,,,,,,,,,,,,,,,,,,,,,,,,,,,,,,,,,,,,,,,,,,,,,,,,,,,,,484.03408219999994,485.8451374,485.8451374,486.04470430000003,0.007955100000117454,486.5447802,486.51170449999984,486.6447913999999,486.7783969999999,486.91140699999994,None,0,F,True,299.35999999997875,0.5143471000001227,0.7813264999999774,269,395258,395525,395794,Correct,489.04439979999995,489.04439979999995,489.24441939999986,,,,,,,,,,,,,,,,,,,,,,,,,,,,,,,,,,,,,384,19,f,y,2022-11-02_13h08.55.121,Prime-Probe,2022.2.4,60.11255474751757,
Test,Visual_Stimuli/D_Up.png,Visual_Stimuli/T_Down.png,n,Incongruent,Incongruent,2,4,4,2,10,,,,,,,,,,,,,0,1,1,1,,,,,,,,,,,,,,,,,,,,,,,,,,,,,,,,,,,,,,,,,,,,,,,,,,,,,,,,,0.013723699999900418,489.7446039,489.71121979999987,489.84428909999986,489.9779152,490.1109092999999,None,0,N,True,316.67560000005324,0.5142504000000372,0.7804877999999462,279,398458,398725,399004,Correct,492.2440352,492.2440352,492.4441573999999,,,,,,,,,,,,,,,,,,,,,,,,,,,,,,,,,,,,,384,19,f,y,2022-11-02_13h08.55.121,Prime-Probe,2022.2.4,60.11255474751757,
Test,Visual_Stimuli/D_Left.png,Visual_Stimuli/T_Left.png,f,Congruent,Incongruent,0,1,0,1,6,,,,,,,,,,,,,0,2,2,2,,,,,,,,,,,,,,,,,,,,,,,,,,,,,,,,,,,,,,,,,,,,,,,,,,,,,,,,,0.013458399999990434,492.94417139999985,492.91113659999985,493.0439545999999,493.17767909999986,493.31073129999993,None,0,F,True,282.9844000000321,0.5142866999999569,0.7801889999998366,249,401659,401925,402174,Correct,495.44370219999985,495.44370219999985,495.64366659999985,,,,,,,,,,,,,,,,,,,,,,,,,,,,,,,,,,,,,384,19,f,y,2022-11-02_13h08.55.121,Prime-Probe,2022.2.4,60.11255474751757,
Test,Visual_Stimuli/D_Up.png,Visual_Stimuli/T_Up.png,j,Congruent,Congruent,2,4,2,4,8,,,,,,,,,,,,,0,3,3,3,,,,,,,,,,,,,,,,,,,,,,,,,,,,,,,,,,,,,,,,,,,,,,,,,,,,,,,,,0.012985199999775432,496.14386779999984,496.110542,496.2435325,496.37723719999997,496.51037659999986,None,0,J,True,316.1800000000312,0.5134996999997838,0.7798862999998164,281,404857,405123,405404,Correct,498.64334999999994,498.64334999999994,498.8432428,,,,,,,,,,,,,,,,,,,,,,,,,,,,,,,,,,,,,384,19,f,y,2022-11-02_13h08.55.121,Prime-Probe,2022.2.4,60.11255474751757,
Test,Visual_Stimuli/D_Left.png,Visual_Stimuli/T_Left.png,f,Congruent,Congruent,0,1,0,1,6,,,,,,,,,,,,,0,4,4,4,,,,,,,,,,,,,,,,,,,,,,,,,,,,,,,,,,,,,,,,,,,,,,,,,,,,,,,,,0.01254409999978634,499.34343090000004,499.31018830000005,499.44349320000003,499.5772834999999,499.70992880000006,None,0,F,True,299.5413999999528,0.5130175999997846,0.7796189999999115,275,408057,408324,408599,Correct,501.84288200000003,501.84288200000003,502.04296480000005,,,,,,,,,,,,,,,,,,,,,,,,,,,,,,,,,,,,,384,19,f,y,2022-11-02_13h08.55.121,Prime-Probe,2022.2.4,60.11255474751757,
Test,Visual_Stimuli/D_Down.png,Visual_Stimuli/T_Down.png,n,Congruent,Congruent,4,2,4,2,10,,,,,,,,,,,,,0,5,5,5,,,,,,,,,,,,,,,,,,,,,,,,,,,,,,,,,,,,,,,,,,,,,,,,,,,,,,,,,0.0123044999998001,502.54312360000006,502.5098864,502.64288299999987,502.7764727,502.90959429999987,None,0,N,True,299.779400000034,0.5127489999997579,0.7789704999997866,267,411257,411522,411789,Correct,505.04276560000005,505.04276560000005,505.2425348999999,,,,,,,,,,,,,,,,,,,,,,,,,,,,,,,,,,,,,384,19,f,y,2022-11-02_13h08.55.121,Prime-Probe,2022.2.4,60.11255474751757,
Test,Visual_Stimuli/D_Left.png,Visual_Stimuli/T_Left.png,f,Congruent,Congruent,0,1,0,1,6,,,,,,,,,,,,,0,6,6,6,,,,,,,,,,,,,,,,,,,,,,,,,,,,,,,,,,,,,,,,,,,,,,,,,,,,,,,,,0.011836099999754879,505.7428618,505.7095258999999,505.84266809999997,505.97611329999984,506.1092668,None,0,F,True,266.30050000017036,0.5125226999996357,0.7787458999996488,233,414456,414722,414955,Correct,508.2422442999999,508.2422442999999,508.4424230999999,,,,,,,,,,,,,,,,,,,,,,,,,,,,,,,,,,,,,384,19,f,y,2022-11-02_13h08.55.121,Prime-Probe,2022.2.4,60.11255474751757,
Test,Visual_Stimuli/D_Up.png,Visual_Stimuli/T_Up.png,j,Congruent,Congruent,2,4,2,4,8,,,,,,,,,,,,,0,7,7,7,,,,,,,,,,,,,,,,,,,,,,,,,,,,,,,,,,,,,,,,,,,,,,,,,,,,,,,,,0.011740399999780493,508.94230830000004,508.909262,509.0420840999999,509.1757274,509.30870930000003,None,0,J,True,266.44050000004427,0.5119595999997273,0.7782647999997607,233,417656,417922,418155,Correct,511.44171399999993,511.44171399999993,511.64190670000005,,,,,,,,,,,,,,,,,,,,,,,,,,,,,,,,,,,,,384,19,f,y,2022-11-02_13h08.55.121,Prime-Probe,2022.2.4,60.11255474751757,
Test,Visual_Stimuli/D_Right.png,Visual_Stimuli/T_Right.png,g,Congruent,Congruent,1,0,1,0,7,,,,,,,,,,,,,0,8,8,8,,,,,,,,,,,,,,,,,,,,,,,,,,,,,,,,,,,,,,,,,,,,,,,,,,,,,,,,,0.011232699999709439,512.1418997,512.1086829,512.2417984999998,512.3753406,512.5083300999999,None,0,G,True,233.14929999992273,0.5115120999996634,0.777870399999756,200,420854,421121,421321,Correct,514.6416444,514.6416444,514.8421674,,,,,,,,,,,,,,,,,,,,,,,,,,,,,,,,,,,,,384,19,f,y,2022-11-02_13h08.55.121,Prime-Probe,2022.2.4,60.11255474751757,
Test,Visual_Stimuli/D_Down.png,Visual_Stimuli/T_Down.png,n,Congruent,Congruent,4,2,4,2,10,,,,,,,,,,,,,0,9,9,9,,,,,,,,,,,,,,,,,,,,,,,,,,,,,,,,,,,,,,,,,,,,,,,,,,,,,,,,,0.011470299999700728,515.3416547999999,515.3083054,515.4415430999999,515.5750340999999,515.7080975999999,None,0,N,True,216.4012000000639,0.511255799999617,0.7775531999996019,195,424054,424321,424516,Correct,517.8411648,517.8411648,518.0415095,,,,,,,,,,,,,,,,,,,,,,,,,,,,,,,,,,,,,384,19,f,y,2022-11-02_13h08.55.121,Prime-Probe,2022.2.4,60.11255474751757,
Test,Visual_Stimuli/D_Right.png,Visual_Stimuli/T_Right.png,g,Congruent,Congruent,1,0,1,0,7,,,,,,,,,,,,,0,10,10,10,,,,,,,,,,,,,,,,,,,,,,,,,,,,,,,,,,,,,,,,,,,,,,,,,,,,,,,,,0.010869699999602744,518.5414414,518.5080053,518.6410063,518.7747719,518.9077623,None,0,G,True,249.6581000000333,0.5110452999995232,0.777227999999468,215,427253,427519,427734,Correct,521.041132,521.041132,521.2406322,,,,,,,,,,,,,,,,,,,,,,,,,,,,,,,,,,,,,384,19,f,y,2022-11-02_13h08.55.121,Prime-Probe,2022.2.4,60.11255474751757,
Test,Visual_Stimuli/D_Up.png,Visual_Stimuli/T_Up.png,j,Congruent,Congruent,2,4,2,4,8,,,,,,,,,,,,,0,11,11,11,,,,,,,,,,,,,,,,,,,,,,,,,,,,,,,,,,,,,,,,,,,,,,,,,,,,,,,,,0.009989299999460854,521.7411791999999,521.7076318999999,521.8405967999998,521.9741094,522.1071779999999,None,0,J,True,249.60969999983718,0.5110774999996011,0.7769581999996262,228,430453,430719,430947,Correct,524.2403453999999,524.2403453999999,524.4404268,,,,,,,,,,,,,,,,,,,,,,,,,,,,,,,,,,,,,384,19,f,y,2022-11-02_13h08.55.121,Prime-Probe,2022.2.4,60.11255474751757,
Test,Visual_Stimuli/D_Left.png,Visual_Stimuli/T_Right.png,g,Incongruent,Congruent,0,1,1,0,7,,,,,,,,,,,,,0,12,12,12,,,,,,,,,,,,,,,,,,,,,,,,,,,,,,,,,,,,,,,,,,,,,,,,,,,,,,,,,0.009742499999447318,524.9407998,524.9073264999998,525.0402886,525.1738574,525.3069594999998,None,0,G,True,399.79349999998703,0.5104143999994903,0.7764163999995617,365,433653,433920,434285,Correct,527.4399087,527.4399087,527.6404368,,,,,,,,,,,,,,,,,,,,,,,,,,,,,,,,,,,,,384,19,f,y,2022-11-02_13h08.55.121,Prime-Probe,2022.2.4,60.11255474751757,
Test,Visual_Stimuli/D_Down.png,Visual_Stimuli/T_Up.png,j,Incongruent,Incongruent,4,2,2,4,8,,,,,,,,,,,,,0,13,13,13,,,,,,,,,,,,,,,,,,,,,,,,,,,,,,,,,,,,,,,,,,,,,,,,,,,,,,,,,0.009765499999502936,528.1400527,528.1069672999998,528.2400411,528.3734625999999,528.5065466,None,0,J,True,416.32220000019515,0.5098159999993186,0.7760351999993418,383,436851,437118,437501,Correct,530.6394732999998,530.6394732999998,530.8395546999999,,,,,,,,,,,,,,,,,,,,,,,,,,,,,,,,,,,,,384,19,f,y,2022-11-02_13h08.55.121,Prime-Probe,2022.2.4,60.11255474751757,
Test,Visual_Stimuli/D_Left.png,Visual_Stimuli/T_Left.png,f,Congruent,Incongruent,0,1,0,1,6,,,,,,,,,,,,,0,14,14,14,,,,,,,,,,,,,,,,,,,,,,,,,,,,,,,,,,,,,,,,,,,,,,,,,,,,,,,,,0.00885699999935241,531.3398446999998,531.3067867999999,531.4395501,531.5730783,531.7061737,None,0,F,True,249.75820000008753,0.5094388999993953,0.7757000999993124,225,440052,440318,440543,Correct,533.8395529999999,533.8395529999999,534.0394384,,,,,,,,,,,,,,,,,,,,,,,,,,,,,,,,,,,,,384,19,f,y,2022-11-02_13h08.55.121,Prime-Probe,2022.2.4,60.11255474751757,
Test,Visual_Stimuli/D_Up.png,Visual_Stimuli/T_Down.png,n,Incongruent,Congruent,2,4,4,2,10,,,,,,,,,,,,,0,15,15,15,,,,,,,,,,,,,,,,,,,,,,,,,,,,,,,,,,,,,,,,,,,,,,,,,,,,,,,,,0.008772299999236566,534.5395491999999,534.5061147,534.6391241,534.7730660999999,534.9057976999999,None,0,N,True,316.15020000003824,0.5091763999994328,0.7754753999993227,289,443252,443518,443807,Correct,537.0387394999999,537.0387394999999,537.2389537999999,,,,,,,,,,,,,,,,,,,,,,,,,,,,,,,,,,,,,384,19,f,y,2022-11-02_13h08.55.121,Prime-Probe,2022.2.4,60.11255474751757,
Test,Visual_Stimuli/D_Left.png,Visual_Stimuli/T_Left.png,f,Congruent,Incongruent,0,1,0,1,6,,,,,,,,,,,,,0,16,16,16,,,,,,,,,,,,,,,,,,,,,,,,,,,,,,,,,,,,,,,,,,,,,,,,,,,,,,,,,0.00834979999922325,537.7391008999999,537.7058189,537.8389412999999,537.9728884999998,538.1053295,None,0,F,True,283.2943000000796,0.5087055999993026,0.774969399999236,258,446450,446717,446975,Correct,540.2384412999999,540.2384412999999,540.4385088,,,,,,,,,,,,,,,,,,,,,,,,,,,,,,,,,,,,,384,19,f,y,2022-11-02_13h08.55.121,Prime-Probe,2022.2.4,60.11255474751757,
Test,Visual_Stimuli/D_Down.png,Visual_Stimuli/T_Down.png,n,Congruent,Congruent,4,2,4,2,10,,,,,,,,,,,,,0,17,17,17,,,,,,,,,,,,,,,,,,,,,,,,,,,,,,,,,,,,,,,,,,,,,,,,,,,,,,,,,0.007817999999133463,540.9386326,540.9054556999998,541.0383562999999,541.1720480999999,541.3051479,None,0,N,True,233.02609999996093,0.508281399999305,0.7746808999993391,201,449650,449917,450118,Correct,543.4380694999999,543.4380694999999,543.6380492,,,,,,,,,,,,,,,,,,,,,,,,,,,,,,,,,,,,,384,19,f,y,2022-11-02_13h08.55.121,Prime-Probe,2022.2.4,60.11255474751757,
Test,Visual_Stimuli/D_Right.png,Visual_Stimuli/T_Right.png,g,Congruent,Congruent,1,0,1,0,7,,,,,,,,,,,,,0,18,18,18,,,,,,,,,,,,,,,,,,,,,,,,,,,,,,,,,,,,,,,,,,,,,,,,,,,,,,,,,0.0073492999993050034,544.1382677,544.1050657,544.2380545,544.3721300999999,544.5047375999999,None,0,G,True,249.85679999986132,0.5079384999992271,0.7741576999992503,228,452849,453115,453343,Correct,546.6377612,546.6377612,546.8379159999998,,,,,,,,,,,,,,,,,,,,,,,,,,,,,,,,,,,,,384,19,f,y,2022-11-02_13h08.55.121,Prime-Probe,2022.2.4,60.11255474751757,
Test,Visual_Stimuli/D_Down.png,Visual_Stimuli/T_Down.png,n,Congruent,Congruent,4,2,4,2,10,,,,,,,,,,,,,0,19,19,19,,,,,,,,,,,,,,,,,,,,,,,,,,,,,,,,,,,,,,,,,,,,,,,,,,,,,,,,,0.007290199999260949,547.3378844,547.3044827,547.4376071,547.5712107,547.7043199999999,None,0,N,True,216.4729000000989,0.5074997999990956,0.7738089999991189,192,456049,456316,456508,Correct,549.8373871999999,549.8373871999999,550.0373887,,,,,,,,,,,,,,,,,,,,,,,,,,,,,,,,,,,,,384,19,f,y,2022-11-02_13h08.55.121,Prime-Probe,2022.2.4,60.11255474751757,
Test,Visual_Stimuli/D_Left.png,Visual_Stimuli/T_Left.png,f,Congruent,Congruent,0,1,0,1,6,,,,,,,,,,,,,0,20,20,20,,,,,,,,,,,,,,,,,,,,,,,,,,,,,,,,,,,,,,,,,,,,,,,,,,,,,,,,,0.0066903999991154706,550.5374719,550.5042035,550.6372676,550.7709157999999,550.9038714,None,0,F,True,1099.7185999999601,0.5071479999990061,0.7734470999992027,1067,459249,459516,460583,TooSlow,553.0378069,553.0378069,553.2371517999999,,,,,,,,,,,,,,,,,,,,,,,,,,,,,,,,,,,,,384,19,f,y,2022-11-02_13h08.55.121,Prime-Probe,2022.2.4,60.11255474751757,
Test,Visual_Stimuli/D_Down.png,Visual_Stimuli/T_Down.png,n,Congruent,Congruent,4,2,4,2,10,,,,,,,,,,,,,0,21,21,21,,,,,,,,,,,,,,,,,,,,,,,,,,,,,,,,,,,,,,,,,,,,,,,,,,,,,,,,,0.006457799998997871,553.7371712999999,553.7038727,553.8371229,553.9707726999999,554.1035097999999,None,0,N,True,216.54499999999643,0.5067830999989837,0.7730277999989994,191,462448,462714,462905,Correct,556.2366756999999,556.2366756999999,556.4365458999999,,,,,,,,,,,,,,,,,,,,,,,,,,,,,,,,,,,,,384,19,f,y,2022-11-02_13h08.55.121,Prime-Probe,2022.2.4,60.11255474751757,
Test,Visual_Stimuli/D_Right.png,Visual_Stimuli/T_Right.png,g,Congruent,Congruent,1,0,1,0,7,,,,,,,,,,,,,0,22,22,22,,,,,,,,,,,,,,,,,,,,,,,,,,,,,,,,,,,,,,,,,,,,,,,,,,,,,,,,,0.005933199998935379,556.9370206999998,556.9037256,557.0366026,557.1701251999999,557.3031296,None,0,G,True,283.08659999993324,0.5066069999991214,0.7726520999990498,259,465648,465914,466173,Correct,559.4362969999999,559.4362969999999,559.6362203999998,,,,,,,,,,,,,,,,,,,,,,,,,,,,,,,,,,,,,384,19,f,y,2022-11-02_13h08.55.121,Prime-Probe,2022.2.4,60.11255474751757,
Test,Visual_Stimuli/D_Up.png,Visual_Stimuli/T_Up.png,j,Congruent,Congruent,2,4,2,4,8,,,,,,,,,,,,,0,23,23,23,,,,,,,,,,,,,,,,,,,,,,,,,,,,,,,,,,,,,,,,,,,,,,,,,,,,,,,,,0.005524799998966046,560.1363705,560.1035516999999,560.2363308999999,560.3697791999999,560.5027799999999,None,0,J,True,233.08840000004238,0.5061058999990564,0.7722692999989249,202,468846,469113,469315,Correct,562.6359299,562.6359299,562.8358889999998,,,,,,,,,,,,,,,,,,,,,,,,,,,,,,,,,,,,,384,19,f,y,2022-11-02_13h08.55.121,Prime-Probe,2022.2.4,60.11255474751757,
Test,Visual_Stimuli/D_Right.png,Visual_Stimuli/T_Right.png,g,Congruent,Congruent,1,0,1,0,7,,,,,,,,,,,,,0,24,24,24,,,,,,,,,,,,,,,,,,,,,,,,,,,,,,,,,,,,,,,,,,,,,,,,,,,,,,,,,0.00522379999893019,563.3360913999999,563.3028085,563.435713,563.5694812999999,563.7026184999999,None,0,G,True,249.63839999986703,0.5057148999990204,0.7721234999989974,214,472046,472313,472527,Correct,565.8356241999999,565.8356241999999,566.0355487,,,,,,,,,,,,,,,,,,,,,,,,,,,,,,,,,,,,,384,19,f,y,2022-11-02_13h08.55.121,Prime-Probe,2022.2.4,60.11255474751757,
Test,Visual_Stimuli/D_Down.png,Visual_Stimuli/T_Up.png,j,Incongruent,Congruent,4,2,2,4,8,,,,,,,,,,,,,0,25,25,25,,,,,,,,,,,,,,,,,,,,,,,,,,,,,,,,,,,,,,,,,,,,,,,,,,,,,,,,,0.00488929999892207,566.5356591999999,566.502756,566.6354668999999,566.7690867,566.9021908999999,None,0,N,False,183.24150000012196,0.5052781999988838,0.7715611999988141,157,475247,475513,475670,Incorrect,569.0353567999999,569.0353567999999,569.2351109,,,,,,,,,,,,,,,,,,,,,,,,,,,,,,,,,,,,,384,19,f,y,2022-11-02_13h08.55.121,Prime-Probe,2022.2.4,60.11255474751757,
Test,Visual_Stimuli/D_Right.png,Visual_Stimuli/T_Right.png,g,Congruent,Incongruent,1,0,1,0,7,,,,,,,,,,,,,0,26,26,26,,,,,,,,,,,,,,,,,,,,,,,,,,,,,,,,,,,,,,,,,,,,,,,,,,,,,,,,,0.004439999998794519,569.7361112999998,569.7019704999999,569.8351334,569.968839,570.1016475,None,0,G,True,233.0703000000085,0.5058298999988438,0.7711865999988277,213,478447,478711,478924,Correct,572.2514365999999,,,,,,,,,,,,,,,,,,,,,,,,,,,,,,,,,,,,,,,384,19,f,y,2022-11-02_13h08.55.121,Prime-Probe,2022.2.4,60.11255474751757,
Test,Visual_Stimuli/D_Up.png,Visual_Stimuli/T_Down.png,n,Incongruent,Congruent,2,4,4,2,10,,,,,,,,,,,,,0,27,27,27,,,,,,,,,,,,,,,,,,,,,,,,,,,,,,,,,,,,,,,,,,,,,,,,,,,,,,,,,0.005191199998762386,572.9351063,572.9020013,573.0346905,573.1682606999999,573.3014473,None,0,N,True,349.14519999983895,0.5047755999987658,0.7713875999988886,327,481645,481912,482239,Correct,575.4344488999999,575.4344488999999,575.634406,,,,,,,,,,,,,,,,,,,,,,,,,,,,,,,,,,,,,384,19,f,y,2022-11-02_13h08.55.121,Prime-Probe,2022.2.4,60.11255474751757,
Test,Visual_Stimuli/D_Right.png,Visual_Stimuli/T_Right.png,g,Congruent,Incongruent,1,0,1,0,7,,,,,,,,,,,,,0,28,28,28,,,,,,,,,,,,,,,,,,,,,,,,,,,,,,,,,,,,,,,,,,,,,,,,,,,,,,,,,0.003715899998724126,576.1346169,576.1013006,576.2342614999999,576.3679701,576.5009437999998,None,0,G,True,316.4553000001433,0.5042423999987022,0.7704239999986839,283,484845,485110,485393,Correct,578.6340666999998,578.6340666999998,578.8343305,,,,,,,,,,,,,,,,,,,,,,,,,,,,,,,,,,,,,384,19,f,y,2022-11-02_13h08.55.121,Prime-Probe,2022.2.4,60.11255474751757,
Test,Visual_Stimuli/D_Up.png,Visual_Stimuli/T_Down.png,n,Incongruent,Congruent,2,4,4,2,10,,,,,,,,,,,,,0,29,29,29,,,,,,,,,,,,,,,,,,,,,,,,,,,,,,,,,,,,,,,,,,,,,,,,,,,,,,,,,0.0036768999987089046,579.3340611999998,579.300885,579.4338904,579.5678216999999,579.7009254999999,None,0,N,True,333.0404999999246,0.5040265999987241,0.7701434999987669,305,488044,488310,488615,Correct,581.8339439,581.8339439,582.0335570999999,,,,,,,,,,,,,,,,,,,,,,,,,,,,,,,,,,,,,384,19,f,y,2022-11-02_13h08.55.121,Prime-Probe,2022.2.4,60.11255474751757,
Test,Visual_Stimuli/D_Left.png,Visual_Stimuli/T_Right.png,g,Incongruent,Incongruent,0,1,1,0,7,,,,,,,,,,,,,0,30,30,30,,,,,,,,,,,,,,,,,,,,,,,,,,,,,,,,,,,,,,,,,,,,,,,,,,,,,,,,,0.0028716999986500014,582.5337802,582.5004857,582.6336700999999,582.7675631999999,582.9002526999999,None,0,F,False,165.7898999999361,0.5034543999986454,0.7703038999986802,131,491244,491510,491641,Incorrect,585.0334709999998,585.0334709999998,585.2332726999999,,,,,,,,,,,,,,,,,,,,,,,,,,,,,,,,,,,,,384,19,f,y,2022-11-02_13h08.55.121,Prime-Probe,2022.2.4,60.11255474751757,
Test,Visual_Stimuli/D_Down.png,Visual_Stimuli/T_Down.png,n,Congruent,Incongruent,4,2,4,2,10,,,,,,,,,,,,,0,31,31,31,,,,,,,,,,,,,,,,,,,,,,,,,,,,,,,,,,,,,,,,,,,,,,,,,,,,,,,,,0.0025799999987157207,585.7335360999999,585.7001654,585.8332999999999,585.9668178999999,586.0999989999999,None,0,N,True,332.9172999999628,0.5031658999985211,0.7694104999986848,297,494442,494709,495006,Correct,588.2331677999999,588.2331677999999,588.4328878,,,,,,,,,,,,,,,,,,,,,,,,,,,,,,,,,,,,,384,19,f,y,2022-11-02_13h08.55.121,Prime-Probe,2022.2.4,60.11255474751757,
Test,Visual_Stimuli/D_Right.png,Visual_Stimuli/T_Left.png,f,Incongruent,Congruent,1,0,0,1,6,,,,,,,,,,,,,0,32,32,32,,,,,,,,,,,,,,,,,,,,,,,,,,,,,,,,,,,,,,,,,,,,,,,,,,,,,,,,,0.0022158999986459094,588.9331323,588.8999938999999,589.0328464,589.1664307,589.2995146,None,0,F,True,349.63059999995494,0.5028237999986231,0.7690417999986039,329,497643,497909,498238,Correct,591.4323754999999,591.4323754999999,591.6327221,,,,,,,,,,,,,,,,,,,,,,,,,,,,,,,,,,,,,384,19,f,y,2022-11-02_13h08.55.121,Prime-Probe,2022.2.4,60.11255474751757,
Test,Visual_Stimuli/D_Up.png,Visual_Stimuli/T_Down.png,n,Incongruent,Incongruent,2,4,4,2,10,,,,,,,,,,,,,0,33,33,33,,,,,,,,,,,,,,,,,,,,,,,,,,,,,,,,,,,,,,,,,,,,,,,,,,,,,,,,,0.002074699998502183,592.1326659,592.0996638,592.2324112999999,592.3663098999999,592.4991394,None,0,N,True,332.7686999998605,0.5022715999984939,0.7688643999986198,299,500843,501109,501408,Correct,594.6322673999999,594.6322673999999,594.8321508999999,,,,,,,,,,,,,,,,,,,,,,,,,,,,,,,,,,,,,384,19,f,y,2022-11-02_13h08.55.121,Prime-Probe,2022.2.4,60.11255474751757,
Test,Visual_Stimuli/D_Left.png,Visual_Stimuli/T_Right.png,g,Incongruent,Incongruent,0,1,1,0,7,,,,,,,,,,,,,0,34,34,34,,,,,,,,,,,,,,,,,,,,,,,,,,,,,,,,,,,,,,,,,,,,,,,,,,,,,,,,,0.0014507999985653441,595.3322626999999,595.2990366999999,595.4320231,595.5656616999999,595.6987154,None,0,G,True,533.0610999999408,0.5019209999984469,0.7681935999985399,502,504041,504307,504809,Correct,597.8319963,597.8319963,598.0319696,,,,,,,,,,,,,,,,,,,,,,,,,,,,,,,,,,,,,384,19,f,y,2022-11-02_13h08.55.121,Prime-Probe,2022.2.4,60.11255474751757,
Test,Visual_Stimuli/D_Up.png,Visual_Stimuli/T_Up.png,j,Congruent,Incongruent,2,4,2,4,8,,,,,,,,,,,,,0,35,35,35,,,,,,,,,,,,,,,,,,,,,,,,,,,,,,,,,,,,,,,,,,,,,,,,,,,,,,,,,0.0012757999984387425,598.5319954,598.4987946999998,598.6317092999999,598.7652655999999,598.8983701999999,None,0,J,True,349.5069999999032,0.5016382999983762,0.7681031999984498,316,507241,507508,507824,Correct,601.0314689,601.0314689,601.2314762,,,,,,,,,,,,,,,,,,,,,,,,,,,,,,,,,,,,,384,19,f,y,2022-11-02_13h08.55.121,Prime-Probe,2022.2.4,60.11255474751757,
Test,Visual_Stimuli/D_Right.png,Visual_Stimuli/T_Right.png,g,Congruent,Congruent,1,0,1,0,7,,,,,,,,,,,,,0,36,36,36,,,,,,,,,,,,,,,,,,,,,,,,,,,,,,,,,,,,,,,,,,,,,,,,,,,,,,,,,0.0007761999984268186,601.7316199,601.6983148999999,601.8314319,601.9650197,602.0980616999999,None,0,G,True,266.14629999994577,0.501431499998489,0.7677152999983718,232,510440,510708,510940,Correct,604.2310830999999,604.2310830999999,604.4310806,,,,,,,,,,,,,,,,,,,,,,,,,,,,,,,,,,,,,384,19,f,y,2022-11-02_13h08.55.121,Prime-Probe,2022.2.4,60.11255474751757,
Test,Visual_Stimuli/D_Down.png,Visual_Stimuli/T_Up.png,j,Incongruent,Congruent,4,2,2,4,8,,,,,,,,,,,,,0,37,37,37,,,,,,,,,,,,,,,,,,,,,,,,,,,,,,,,,,,,,,,,,,,,,,,,,,,,,,,,,0.0004162999982781912,604.93122,604.8980444,605.0311736999998,605.1646013999999,605.2976195999998,None,0,J,True,399.956100000054,0.5008208999984163,0.767086399998334,372,513640,513906,514278,Correct,607.4308235,607.4308235,607.6306805,,,,,,,,,,,,,,,,,,,,,,,,,,,,,,,,,,,,,384,19,f,y,2022-11-02_13h08.55.121,Prime-Probe,2022.2.4,60.11255474751757,
Test,Visual_Stimuli/D_Left.png,Visual_Stimuli/T_Right.png,g,Incongruent,Incongruent,0,1,1,0,7,,,,,,,,,,,,,0,38,38,38,,,,,,,,,,,,,,,,,,,,,,,,,,,,,,,,,,,,,,,,,,,,,,,,,,,,,,,,,-4.0000168155529536e-07,608.1307831999999,608.0975397999999,608.2310853,608.3643532,608.4971463999999,None,0,G,True,366.25660000004245,0.5003790999983266,0.7669223999982933,333,516840,517107,517440,Correct,610.6305739999999,610.6305739999999,610.8304133999999,,,,,,,,,,,,,,,,,,,,,,,,,,,,,,,,,,,,,384,19,f,y,2022-11-02_13h08.55.121,Prime-Probe,2022.2.4,60.11255474751757,
Test,Visual_Stimuli/D_Down.png,Visual_Stimuli/T_Down.png,n,Congruent,Incongruent,4,2,4,2,10,,,,,,,,,,,,,0,39,39,39,,,,,,,,,,,,,,,,,,,,,,,,,,,,,,,,,,,,,,,,,,,,,,,,,,,,,,,,,-0.0002656000017395854,611.3306119,611.2972911,611.4303521999999,611.5639242999999,611.6968779999999,None,0,N,True,316.2297999999737,0.5003284999982043,0.7831163999983346,281,520038,520323,520604,Correct,613.8298085999999,613.8298085999999,614.0299561,,,,,,,,,,,,,,,,,,,,,,,,,,,,,,,,,,,,,384,19,f,y,2022-11-02_13h08.55.121,Prime-Probe,2022.2.4,60.11255474751757,
Test,Visual_Stimuli/D_Right.png,Visual_Stimuli/T_Left.png,f,Incongruent,Congruent,1,0,0,1,6,,,,,,,,,,,,,0,40,40,40,,,,,,,,,,,,,,,,,,,,,,,,,,,,,,,,,,,,,,,,,,,,,,,,,,,,,,,,,-0.0006605000019135332,614.5304682,614.4968028,614.6300447999998,614.7804078,614.9135209999998,None,0,F,True,349.78209999985665,0.5001367999982449,0.7825954999982514,317,523239,523521,523838,Correct,617.0467414999999,617.0296204,617.2463885999999,,,,,,,,,,,,,,,,,,,,,,,,,,,,,,,,,,,,,384,19,f,y,2022-11-02_13h08.55.121,Prime-Probe,2022.2.4,60.11255474751757,
Test,Visual_Stimuli/D_Up.png,Visual_Stimuli/T_Down.png,n,Incongruent,Incongruent,2,4,4,2,10,,,,,,,,,,,,,0,41,41,41,,,,,,,,,,,,,,,,,,,,,,,,,,,,,,,,,,,,,,,,,,,,,,,,,,,,,,,,,-0.0003134000019144878,617.7296682,617.7132447999999,617.8461916999998,617.9799651,618.1127362999999,None,0,N,True,332.8704000000471,0.515743799998063,0.7826274999981706,311,526455,526721,527032,Correct,620.2461792,620.2297694,620.4458033,,,,,,,,,,,,,,,,,,,,,,,,,,,,,,,,,,,,,384,19,f,y,2022-11-02_13h08.55.121,Prime-Probe,2022.2.4,60.11255474751757,
Test,Visual_Stimuli/D_Right.png,Visual_Stimuli/T_Left.png,f,Incongruent,Incongruent,1,0,0,1,6,,,,,,,,,,,,,0,42,42,42,,,,,,,,,,,,,,,,,,,,,,,,,,,,,,,,,,,,,,,,,,,,,,,,,,,,,,,,,-0.00014200000191522122,620.9460957999999,620.9129368,621.0458911,621.179665,621.3124664999999,None,0,F,True,332.82459999986713,0.515691199998173,0.7820802999981424,310,529653,529921,530231,Correct,623.4455115,623.4455115,623.6454155,,,,,,,,,,,,,,,,,,,,,,,,,,,,,,,,,,,,,384,19,f,y,2022-11-02_13h08.55.121,Prime-Probe,2022.2.4,60.11255474751757,
Test,Visual_Stimuli/D_Down.png,Visual_Stimuli/T_Up.png,j,Incongruent,Incongruent,4,2,2,4,8,,,,,,,,,,,,,0,43,43,43,,,,,,,,,,,,,,,,,,,,,,,,,,,,,,,,,,,,,,,,,,,,,,,,,,,,,,,,,-0.0006473000019013853,624.1455958,624.1122878,624.2454792,624.3790502999999,624.5120079,None,0,J,True,399.7196000000258,0.5151530999980878,0.7815688999980921,370,532853,533119,533489,Correct,626.6451039,626.6451039,626.8450799999999,,,,,,,,,,,,,,,,,,,,,,,,,,,,,,,,,,,,,384,19,f,y,2022-11-02_13h08.55.121,Prime-Probe,2022.2.4,60.11255474751757,
Test,Visual_Stimuli/D_Right.png,Visual_Stimuli/T_Left.png,f,Incongruent,Incongruent,1,0,0,1,6,,,,,,,,,,,,,0,44,44,44,,,,,,,,,,,,,,,,,,,,,,,,,,,,,,,,,,,,,,,,,,,,,,,,,,,,,,,,,-0.0007202000019788102,627.3456903999999,627.312098,627.4450556999999,627.5789623,627.7116007999999,None,0,F,True,282.70419999989826,0.5153344999980618,0.7815151999980117,260,536053,536320,536580,Correct,629.8447485999999,629.8447485999999,630.0453412999999,,,,,,,,,,,,,,,,,,,,,,,,,,,,,,,,,,,,,384,19,f,y,2022-11-02_13h08.55.121,Prime-Probe,2022.2.4,60.11255474751757,
Test,Visual_Stimuli/D_Up.png,Visual_Stimuli/T_Up.png,j,Congruent,Incongruent,2,4,2,4,8,,,,,,,,,,,,,0,45,45,45,,,,,,,,,,,,,,,,,,,,,,,,,,,,,,,,,,,,,,,,,,,,,,,,,,,,,,,,,0.014666999997871244,630.5448639,630.5117348,630.6446362999999,630.7783140999999,630.9115914,None,0,J,True,332.59130000010373,0.5144283999979962,0.7811816999978873,312,539252,539518,539830,Correct,633.0443328999999,633.0443328999999,633.2443975,,,,,,,,,,,,,,,,,,,,,,,,,,,,,,,,,,,,,384,19,f,y,2022-11-02_13h08.55.121,Prime-Probe,2022.2.4,60.11255474751757,
Test,Visual_Stimuli/D_Left.png,Visual_Stimuli/T_Right.png,g,Incongruent,Congruent,0,1,1,0,7,,,,,,,,,,,,,0,46,46,46,,,,,,,,,,,,,,,,,,,,,,,,,,,,,,,,,,,,,,,,,,,,,,,,,,,,,,,,,0.013698299997940921,633.7452067999999,633.7112569,633.8441955,633.9784337999998,634.1113124,None,0,G,True,416.67869999992035,0.5148223999979109,0.7803488999979891,396,542452,542718,543114,Correct,636.2609108999999,,,,,,,,,,,,,,,,,,,,,,,,,,,,,,,,,,,,,,,384,19,f,y,2022-11-02_13h08.55.121,Prime-Probe,2022.2.4,60.11255474751757,
Test,Visual_Stimuli/D_Up.png,Visual_Stimuli/T_Up.png,j,Congruent,Incongruent,2,4,2,4,8,,,,,,,,,,,,,0,47,47,47,,,,,,,,,,,,,,,,,,,,,,,,,,,,,,,,,,,,,,,,,,,,,,,,,,,,,,,,,0.013890099997979632,636.9442042,636.9109734,637.0440086,637.1775991999999,637.3105331,None,0,J,True,300.5570999998781,0.5137919999979204,0.7802295999979378,273,545652,545919,546192,Correct,639.4438096999999,639.4438096999999,639.6436166,,,,,,,,,,,,,,,,,,,,,,,,,,,,,,,,,,,,,384,19,f,y,2022-11-02_13h08.55.121,Prime-Probe,2022.2.4,60.11255474751757,
Test,Visual_Stimuli/D_Left.png,Visual_Stimuli/T_Right.png,g,Incongruent,Congruent,0,1,1,0,7,,,,,,,,,,,,,0,48,48,48,,,,,,,,,,,,,,,,,,,,,,,,,,,,,,,,,,,,,,,,,,,,,,,,,,,,,,,,,0.012938199997734046,640.143888,640.1106271999998,640.2436577,640.3771656999999,640.5104175,None,0,F,False,250.08210000009967,0.5135453999978381,0.7797561999977916,215,548851,549117,549332,Incorrect,642.6433352999999,642.6433352999999,642.8434031999999,,,,,,,,,,,,,,,,,,,,,,,,,,,,,,,,,,,,,384,19,f,y,2022-11-02_13h08.55.121,Prime-Probe,2022.2.4,60.11255474751757,
Test,Visual_Stimuli/D_Up.png,Visual_Stimuli/T_Up.png,j,Congruent,Incongruent,2,4,2,4,8,,,,,,,,,,,,,0,49,49,49,,,,,,,,,,,,,,,,,,,,,,,,,,,,,,,,,,,,,,,,,,,,,,,,,,,,,,,,,0.01270389999785948,643.3435246999999,643.3101843999999,643.4431902999999,643.5771708999999,643.7098055999999,None,0,J,True,316.5979000000334,0.5131515999978546,0.7791796999977123,281,552051,552317,552598,Correct,645.8435278999999,645.8435278999999,646.0429725999999,,,,,,,,,,,,,,,,,,,,,,,,,,,,,,,,,,,,,384,19,f,y,2022-11-02_13h08.55.121,Prime-Probe,2022.2.4,60.11255474751757,
Test,Visual_Stimuli/D_Right.png,Visual_Stimuli/T_Left.png,f,Incongruent,Congruent,1,0,0,1,6,,,,,,,,,,,,,0,50,50,50,,,,,,,,,,,,,,,,,,,,,,,,,,,,,,,,,,,,,,,,,,,,,,,,,,,,,,,,,0.012274799997840091,646.5429699999999,646.5099468,646.6427321,646.7767763,646.9094876,None,0,F,True,349.66110000004846,0.5125896999977613,0.7789643999976761,323,555249,555516,555839,Correct,649.0425557,649.0425557,649.2427265,,,,,,,,,,,,,,,,,,,,,,,,,,,,,,,,,,,,,384,19,f,y,2022-11-02_13h08.55.121,Prime-Probe,2022.2.4,60.11255474751757,
Test,Visual_Stimuli/D_Up.png,Visual_Stimuli/T_Up.png,j,Congruent,Incongruent,2,4,2,4,8,,,,,,,,,,,,,0,51,51,51,,,,,,,,,,,,,,,,,,,,,,,,,,,,,,,,,,,,,,,,,,,,,,,,,,,,,,,,,0.012082899997722052,649.7427141,649.7095685,649.8423340999999,649.9759849999999,650.1089982,None,0,J,True,316.2589000000935,0.5122928999976466,0.7787923999976556,281,558449,558716,558997,Correct,652.2421056,652.2421056,652.4421303999999,,,,,,,,,,,,,,,,,,,,,,,,,,,,,,,,,,,,,384,19,f,y,2022-11-02_13h08.55.121,Prime-Probe,2022.2.4,60.11255474751757,
Test,Visual_Stimuli/D_Right.png,Visual_Stimuli/T_Left.png,f,Incongruent,Congruent,1,0,0,1,6,,,,,,,,,,,,,0,52,52,52,,,,,,,,,,,,,,,,,,,,,,,,,,,,,,,,,,,,,,,,,,,,,,,,,,,,,,,,,0.011429699997734133,652.9427124,652.9091318,653.0421075,653.1759039999998,653.3088110999998,None,0,F,True,349.8480999999174,0.512369399997624,0.7782349999977214,327,561650,561916,562243,Correct,655.4423957999999,655.4423957999999,655.6416676,,,,,,,,,,,,,,,,,,,,,,,,,,,,,,,,,,,,,384,19,f,y,2022-11-02_13h08.55.121,Prime-Probe,2022.2.4,60.11255474751757,
Test,Visual_Stimuli/D_Down.png,Visual_Stimuli/T_Up.png,j,Incongruent,Incongruent,4,2,2,4,8,,,,,,,,,,,,,0,53,53,53,,,,,,,,,,,,,,,,,,,,,,,,,,,,,,,,,,,,,,,,,,,,,,,,,,,,,,,,,0.010972199997695498,656.1419543999999,656.1087916,656.2415571,656.3754287,656.5083372999999,None,0,J,True,333.0261999999493,0.51173429999767,0.7779755999977169,307,564848,565114,565421,Correct,658.6413300999999,658.6413300999999,658.8414357999999,,,,,,,,,,,,,,,,,,,,,,,,,,,,,,,,,,,,,384,19,f,y,2022-11-02_13h08.55.121,Prime-Probe,2022.2.4,60.11255474751757,
Test,Visual_Stimuli/D_Right.png,Visual_Stimuli/T_Left.png,f,Incongruent,Incongruent,1,0,0,1,6,,,,,,,,,,,,,0,54,54,54,,,,,,,,,,,,,,,,,,,,,,,,,,,,,,,,,,,,,,,,,,,,,,,,,,,,,,,,,0.0107515999975476,659.3416117,659.3083894,659.4413432999999,659.5750495999999,659.707994,None,0,F,True,283.1742999999278,0.5112751999974989,0.7775799999976698,258,568048,568315,568573,Correct,661.8409691,661.8409691,662.0409166999999,,,,,,,,,,,,,,,,,,,,,,,,,,,,,,,,,,,,,384,19,f,y,2022-11-02_13h08.55.121,Prime-Probe,2022.2.4,60.11255474751757,
Test,Visual_Stimuli/D_Down.png,Visual_Stimuli/T_Down.png,n,Congruent,Incongruent,4,2,4,2,10,,,,,,,,,,,,,0,55,55,55,,,,,,,,,,,,,,,,,,,,,,,,,,,,,,,,,,,,,,,,,,,,,,,,,,,,,,,,,0.010217799997462862,662.5412548,662.5080798999999,662.6408776,662.7744958,662.9078148999998,None,0,N,True,316.1178000000291,0.5109168999974827,0.7776284999974905,293,571246,571513,571806,Correct,665.0407807999999,665.0407807999999,665.2406359999999,,,,,,,,,,,,,,,,,,,,,,,,,,,,,,,,,,,,,384,19,f,y,2022-11-02_13h08.55.121,Prime-Probe,2022.2.4,60.11255474751757,
Test,Visual_Stimuli/D_Right.png,Visual_Stimuli/T_Left.png,f,Incongruent,Congruent,1,0,0,1,6,,,,,,,,,,,,,0,56,56,56,,,,,,,,,,,,,,,,,,,,,,,,,,,,,,,,,,,,,,,,,,,,,,,,,,,,,,,,,0.00993559999756144,665.7410876,665.7077005,665.8406251999999,665.9742623999999,666.1072605999999,None,0,F,True,282.94990000017606,0.5107444999973723,0.7768005999973866,261,574447,574713,574974,Correct,668.240306,668.240306,668.4411896999999,,,,,,,,,,,,,,,,,,,,,,,,,,,,,,,,,,,,,384,19,f,y,2022-11-02_13h08.55.121,Prime-Probe,2022.2.4,60.11255474751757,
Test,Visual_Stimuli/D_Down.png,Visual_Stimuli/T_Down.png,n,Congruent,Incongruent,4,2,4,2,10,,,,,,,,,,,,,0,57,57,57,,,,,,,,,,,,,,,,,,,,,,,,,,,,,,,,,,,,,,,,,,,,,,,,,,,,,,,,,0.010507099997539626,668.9405828,668.9072387,669.0408031999999,669.1741836,669.3068027,None,0,N,True,266.44119999991744,0.5102342999973644,0.7763690999975097,245,577647,577913,578158,Correct,671.4399482,671.4399482,671.6399026999999,,,,,,,,,,,,,,,,,,,,,,,,,,,,,,,,,,,,,384,19,f,y,2022-11-02_13h08.55.121,Prime-Probe,2022.2.4,60.11255474751757,
Test,Visual_Stimuli/D_Left.png,Visual_Stimuli/T_Right.png,g,Incongruent,Congruent,0,1,1,0,7,,,,,,,,,,,,,0,58,58,58,,,,,,,,,,,,,,,,,,,,,,,,,,,,,,,,,,,,,,,,,,,,,,,,,,,,,,,,,0.009204799997405644,672.1399945,672.1070042,672.2402139,672.3733937999999,672.5065449999998,None,0,G,True,316.673099999889,0.5095933999973568,0.776023699997495,291,580845,581112,581403,Correct,674.6395575999999,674.6395575999999,674.8397102,,,,,,,,,,,,,,,,,,,,,,,,,,,,,,,,,,,,,384,19,f,y,2022-11-02_13h08.55.121,Prime-Probe,2022.2.4,60.11255474751757,
Test,Visual_Stimuli/D_Down.png,Visual_Stimuli/T_Up.png,j,Incongruent,Incongruent,4,2,2,4,8,,,,,,,,,,,,,0,59,59,59,,,,,,,,,,,,,,,,,,,,,,,,,,,,,,,,,,,,,,,,,,,,,,,,,,,,,,,,,0.009011499997313877,675.3397778,675.3064128,675.439667,675.5732239999999,675.7060502,None,0,J,True,316.15660000011303,0.5094483999973818,0.7757742999972379,293,584045,584312,584605,Correct,677.8391472,677.8391472,678.0396106,,,,,,,,,,,,,,,,,,,,,,,,,,,,,,,,,,,,,384,19,f,y,2022-11-02_13h08.55.121,Prime-Probe,2022.2.4,60.11255474751757,
Test,Visual_Stimuli/D_Left.png,Visual_Stimuli/T_Left.png,f,Congruent,Incongruent,0,1,0,1,6,,,,,,,,,,,,,0,60,60,60,,,,,,,,,,,,,,,,,,,,,,,,,,,,,,,,,,,,,,,,,,,,,,,,,,,,,,,,,0.008930899997267261,678.5392518,678.5063348999998,678.6390353,678.7728120999999,678.9057041999998,None,0,F,True,266.4535999999771,0.5088831999973991,0.775263999997378,233,587246,587510,587743,Correct,681.0389140999999,681.0389140999999,681.238819,,,,,,,,,,,,,,,,,,,,,,,,,,,,,,,,,,,,,384,19,f,y,2022-11-02_13h08.55.121,Prime-Probe,2022.2.4,60.11255474751757,
Test,Visual_Stimuli/D_Up.png,Visual_Stimuli/T_Down.png,n,Incongruent,Congruent,2,4,4,2,10,,,,,,,,,,,,,0,61,61,61,,,,,,,,,,,,,,,,,,,,,,,,,,,,,,,,,,,,,,,,,,,,,,,,,,,,,,,,,0.00815929999725995,681.7391503999999,681.7057102,681.838607,681.9721948,682.1053166,None,0,N,True,266.31499999984953,0.5087679999971897,0.7751518999973541,236,590444,590710,590946,Correct,684.2384914,684.2384914,684.4384322,,,,,,,,,,,,,,,,,,,,,,,,,,,,,,,,,,,,,384,19,f,y,2022-11-02_13h08.55.121,Prime-Probe,2022.2.4,60.11255474751757,
Test,Visual_Stimuli/D_Left.png,Visual_Stimuli/T_Right.png,g,Incongruent,Incongruent,0,1,1,0,7,,,,,,,,,,,,,0,62,62,62,,,,,,,,,,,,,,,,,,,,,,,,,,,,,,,,,,,,,,,,,,,,,,,,,,,,,,,,,0.007730799997261784,684.9385140999999,684.9055279,685.0385399999999,685.1720053999999,685.3049047999999,None,0,G,True,333.22500000008404,0.5081172999971386,0.7745276999971793,306,593644,593911,594217,Correct,687.438151,687.438151,687.6379959,,,,,,,,,,,,,,,,,,,,,,,,,,,,,,,,,,,,,384,19,f,y,2022-11-02_13h08.55.121,Prime-Probe,2022.2.4,60.11255474751757,
Test,Visual_Stimuli/D_Up.png,Visual_Stimuli/T_Down.png,n,Incongruent,Incongruent,2,4,4,2,10,,,,,,,,,,,,,0,63,63,63,,,,,,,,,,,,,,,,,,,,,,,,,,,,,,,,,,,,,,,,,,,,,,,,,,,,,,,,,0.007297899997183777,688.1382786,688.1048881999999,688.2382836,688.371642,688.5047605999999,None,0,N,True,283.00239999998666,0.5079487999971661,0.7741810999971221,249,596845,597109,597358,Correct,690.6377259,690.6377259,690.8376408999999,,,,,,,,,,,,,,,,,,,,,,,,,,,,,,,,,,,,,384,19,f,y,2022-11-02_13h08.55.121,Prime-Probe,2022.2.4,60.11255474751757,
Test,Visual_Stimuli/D_Left.png,Visual_Stimuli/T_Right.png,g,Incongruent,Incongruent,0,1,1,0,7,,,,,,,,,,,,,0,64,64,64,,,,,,,,,,,,,,,,,,,,,,,,,,,,,,,,,,,,,,,,,,,,,,,,,,,,,,,,,0.006972899997208515,691.3378965,691.3046576,691.4379608999999,691.5715368,691.7042620999999,None,0,G,True,299.74879999986115,0.5075074999970184,0.7737256999971578,279,600043,600309,600588,Correct,693.8372822,693.8372822,694.037561,,,,,,,,,,,,,,,,,,,,,,,,,,,,,,,,,,,,,384,19,f,y,2022-11-02_13h08.55.121,Prime-Probe,2022.2.4,60.11255474751757,
Test,Visual_Stimuli/D_Down.png,Visual_Stimuli/T_Up.png,j,Incongruent,Incongruent,4,2,2,4,8,,,,,,,,,,,,,0,65,65,65,,,,,,,,,,,,,,,,,,,,,,,,,,,,,,,,,,,,,,,,,,,,,,,,,,,,,,,,,0.00689019999708762,694.5374862999998,694.5041935999999,694.6373221,694.77094,694.9039548,None,0,J,True,316.2807999999586,0.5071511999969971,0.7735466999970413,285,603243,603510,603795,Correct,697.0374472,697.0374472,697.2368204,,,,,,,,,,,,,,,,,,,,,,,,,,,,,,,,,,,,,384,19,f,y,2022-11-02_13h08.55.121,Prime-Probe,2022.2.4,60.11255474751757,
Test,Visual_Stimuli/D_Left.png,Visual_Stimuli/T_Left.png,f,Congruent,Incongruent,0,1,0,1,6,,,,,,,,,,,,,0,66,66,66,,,,,,,,,,,,,,,,,,,,,,,,,,,,,,,,,,,,,,,,,,,,,,,,,,,,,,,,,0.006159799997021764,697.7373317,697.7039541999999,697.8370019,697.9704639999999,698.1034853,None,0,F,True,299.80890000001637,0.5070206999969287,0.7729831999970429,264,606441,606708,606972,Correct,700.237015,700.237015,700.4365485,,,,,,,,,,,,,,,,,,,,,,,,,,,,,,,,,,,,,384,19,f,y,2022-11-02_13h08.55.121,Prime-Probe,2022.2.4,60.11255474751757,
Test,Visual_Stimuli/D_Down.png,Visual_Stimuli/T_Up.png,j,Incongruent,Congruent,4,2,2,4,8,,,,,,,,,,,,,0,67,67,67,,,,,,,,,,,,,,,,,,,,,,,,,,,,,,,,,,,,,,,,,,,,,,,,,,,,,,,,,0.005900699997027914,700.936566,700.90334,701.0364734999999,701.1701609,701.303041,None,0,J,True,266.46980000009535,0.5061566999970637,0.7726255999968998,239,609642,609908,610147,Correct,703.4362035,703.4362035,703.6362642,,,,,,,,,,,,,,,,,,,,,,,,,,,,,,,,,,,,,384,19,f,y,2022-11-02_13h08.55.121,Prime-Probe,2022.2.4,60.11255474751757,
Test,Visual_Stimuli/D_Right.png,Visual_Stimuli/T_Right.png,g,Congruent,Incongruent,1,0,1,0,7,,,,,,,,,,,,,0,68,68,68,,,,,,,,,,,,,,,,,,,,,,,,,,,,,,,,,,,,,,,,,,,,,,,,,,,,,,,,,0.005566099996940466,704.136435,704.1031090999999,704.2364420999999,704.3698341999999,704.5027687999999,None,0,G,True,299.6888999998646,0.5060665999969842,0.7722559999970144,277,612840,613106,613383,Correct,706.6358108000001,706.6358108000001,706.8358958999999,,,,,,,,,,,,,,,,,,,,,,,,,,,,,,,,,,,,,384,19,f,y,2022-11-02_13h08.55.121,Prime-Probe,2022.2.4,60.11255474751757,
Test,Visual_Stimuli/D_Down.png,Visual_Stimuli/T_Up.png,j,Incongruent,Congruent,4,2,2,4,8,,,,,,,,,,,,,0,69,69,69,,,,,,,,,,,,,,,,,,,,,,,,,,,,,,,,,,,,,,,,,,,,,,,,,,,,,,,,,0.00524019999693337,707.3359984999998,707.3030003999999,707.435666,707.5693508999999,707.7024602,None,0,J,True,299.8489999999947,0.5055637999969349,0.7718346999968162,266,616040,616307,616573,Correct,709.8354229,709.8354229,710.0357519,,,,,,,,,,,,,,,,,,,,,,,,,,,,,,,,,,,,,384,19,f,y,2022-11-02_13h08.55.121,Prime-Probe,2022.2.4,60.11255474751757,
Test,Visual_Stimuli/D_Left.png,Visual_Stimuli/T_Left.png,f,Congruent,Incongruent,0,1,0,1,6,,,,,,,,,,,,,0,70,70,70,,,,,,,,,,,,,,,,,,,,,,,,,,,,,,,,,,,,,,,,,,,,,,,,,,,,,,,,,0.005138599996826088,710.5356309999999,710.5026119,710.635216,710.7690240999999,710.9020426999999,None,0,F,True,149.87089999999625,0.5052497999968182,0.7715386999968814,128,619240,619507,619635,Correct,713.0357484,713.0357484,713.2350161,,,,,,,,,,,,,,,,,,,,,,,,,,,,,,,,,,,,,384,19,f,y,2022-11-02_13h08.55.121,Prime-Probe,2022.2.4,60.11255474751757,
Test,Visual_Stimuli/D_Up.png,Visual_Stimuli/T_Down.png,n,Incongruent,Congruent,2,4,4,2,10,,,,,,,,,,,,,0,71,71,71,,,,,,,,,,,,,,,,,,,,,,,,,,,,,,,,,,,,,,,,,,,,,,,,,,,,,,,,,0.004325399996787382,713.7352218,713.7020638999999,713.8348611,713.9685122,714.1015054999999,None,0,N,True,249.89449999998214,0.5048059999967336,0.7714297999968949,217,622439,622705,622922,Correct,716.2348327999999,716.2348327999999,716.5356057,,,,,,,,,,,,,,,,,,,,,,,,,,,,,,,,,,,,,384,19,f,y,2022-11-02_13h08.55.121,Prime-Probe,2022.2.4,60.11255474751757,
,,,,,,,,,,,,,,,,,,,,,,,,,,,,,,,,,,,,,,,,,,,,,,,,,,,,,,,,,,,,,,,,,,,,,,,,,,,,,,,,,,,,,,,,,,,,,,,,,,,,,,,,,,,720.523161,720.523161,None,,,,,716.5356057,716.5356057,,,,,,,,,,,,,,,,,,,,,,,,,384,19,f,y,2022-11-02_13h08.55.121,Prime-Probe,2022.2.4,60.11255474751757,
Test,Visual_Stimuli/D_Left.png,Visual_Stimuli/T_Left.png,f,Congruent,None,0,1,0,1,6,,,,,,,,,,,,,,,,,0,0,0,0,,,,,,,,,,,,,,,,,,,,,,,,,,,,,,,,,,,,,,,,,,,,,,,,,720.523161,722.3339726,722.3339726,722.5339605,0.009287099999937709,723.0341196999999,723.0008858,723.1340073999999,723.2676089999999,723.4005337,None,0,F,True,350.12959999994564,0.5150165999998535,0.7813948999998956,315,631737,632005,632320,Correct,725.5335996999999,725.5335996999999,725.7336141,,,,,,,,,,,,,,,,,,,,,,,,,,,,,,,,,,,,,384,19,f,y,2022-11-02_13h08.55.121,Prime-Probe,2022.2.4,60.11255474751757,
Test,Visual_Stimuli/D_Down.png,Visual_Stimuli/T_Up.png,j,Incongruent,Congruent,4,2,2,4,8,,,,,,,,,,,,,,,,,0,1,1,1,,,,,,,,,,,,,,,,,,,,,,,,,,,,,,,,,,,,,,,,,,,,,,,,,,,,,0.014186099999960788,726.2339791999999,726.2003896999998,726.3335682000001,726.4673669999999,726.600237,None,0,J,True,482.9222999999274,0.5149543999998514,0.7811558999999306,451,634937,635203,635654,Correct,728.7332822,728.7332822,728.9332029999999,,,,,,,,,,,,,,,,,,,,,,,,,,,,,,,,,,,,,384,19,f,y,2022-11-02_13h08.55.121,Prime-Probe,2022.2.4,60.11255474751757,
Test,Visual_Stimuli/D_Right.png,Visual_Stimuli/T_Left.png,f,Incongruent,Incongruent,1,0,0,1,6,,,,,,,,,,,,,,,,,0,2,2,2,,,,,,,,,,,,,,,,,,,,,,,,,,,,,,,,,,,,,,,,,,,,,,,,,,,,,0.013775499999837848,729.433484,729.4001955,729.5332032,729.6667747999999,729.7999203999999,None,0,F,True,466.41090000002805,0.5143623999997544,0.7805959999998322,433,638137,638404,638837,Correct,731.9334502999999,731.9334502999999,732.1333478999999,,,,,,,,,,,,,,,,,,,,,,,,,,,,,,,,,,,,,384,19,f,y,2022-11-02_13h08.55.121,Prime-Probe,2022.2.4,60.11255474751757,
Test,Visual_Stimuli/D_Down.png,Visual_Stimuli/T_Down.png,n,Congruent,Incongruent,4,2,4,2,10,,,,,,,,,,,,,,,,,0,3,3,3,,,,,,,,,,,,,,,,,,,,,,,,,,,,,,,,,,,,,,,,,,,,,,,,,,,,,0.014019699999835211,732.6331274999999,732.5999639999999,732.7327532,732.8665471999999,732.9994207999999,None,0,N,True,349.53669999981685,0.5140667999996822,0.780411999999842,315,641336,641602,641917,Correct,735.1325005,735.1325005,735.3326704999998,,,,,,,,,,,,,,,,,,,,,,,,,,,,,,,,,,,,,384,19,f,y,2022-11-02_13h08.55.121,Prime-Probe,2022.2.4,60.11255474751757,
Test,Visual_Stimuli/D_Left.png,Visual_Stimuli/T_Left.png,f,Congruent,Congruent,0,1,0,1,6,,,,,,,,,,,,,,,,,0,4,4,4,,,,,,,,,,,,,,,,,,,,,,,,,,,,,,,,,,,,,,,,,,,,,,,,,,,,,0.013264799999660681,735.8325882999999,735.7993551999999,735.9323702999999,736.0661426,736.1990609999999,None,0,F,True,300.1191999999264,0.5134393999996973,0.779818499999692,265,644536,644802,645067,Correct,738.3324434999998,738.3324434999998,738.5321401999998,,,,,,,,,,,,,,,,,,,,,,,,,,,,,,,,,,,,,384,19,f,y,2022-11-02_13h08.55.121,Prime-Probe,2022.2.4,60.11255474751757,
Test,Visual_Stimuli/D_Up.png,Visual_Stimuli/T_Down.png,n,Incongruent,Congruent,2,4,4,2,10,,,,,,,,,,,,,,,,,0,5,5,5,,,,,,,,,,,,,,,,,,,,,,,,,,,,,,,,,,,,,,,,,,,,,,,,,,,,,0.012712199999668883,739.0323219,738.9991704,739.1323756999999,739.2657759999998,739.3988598,None,0,N,True,316.3059000000885,0.5132621999996445,0.7795830999996269,280,647736,648003,648283,Correct,741.5317514,741.5317514,741.7317132,,,,,,,,,,,,,,,,,,,,,,,,,,,,,,,,,,,,,384,19,f,y,2022-11-02_13h08.55.121,Prime-Probe,2022.2.4,60.11255474751757,
