RunType,Distractor,Target,corrAns,CurrTrialType,PrevTrialType,Prime_Congruent_Key_Analog_Column,Prime_Incongruent_Key_Analog_Column,Probe_Congruent_Key_Analog_Column,Probe_Incongruent_Key_Analog_Column,Probe_Congruent_Key_Digital_Column,Pract1.thisRepN,Pract1.thisTrialN,Pract1.thisN,Pract1.thisIndex,Pract2.thisRepN,Pract2.thisTrialN,Pract2.thisN,Pract2.thisIndex,Trials_1.thisRepN,Trials_1.thisTrialN,Trials_1.thisN,Trials_1.thisIndex,Trials_2.thisRepN,Trials_2.thisTrialN,Trials_2.thisN,Trials_2.thisIndex,Trials_3.thisRepN,Trials_3.thisTrialN,Trials_3.thisN,Trials_3.thisIndex,Trials_4.thisRepN,Trials_4.thisTrialN,Trials_4.thisN,Trials_4.thisIndex,Trials_5.thisRepN,Trials_5.thisTrialN,Trials_5.thisN,Trials_5.thisIndex,Trials_6.thisRepN,Trials_6.thisTrialN,Trials_6.thisN,Trials_6.thisIndex,Trials_7.thisRepN,Trials_7.thisTrialN,Trials_7.thisN,Trials_7.thisIndex,Trials_8.thisRepN,Trials_8.thisTrialN,Trials_8.thisN,Trials_8.thisIndex,Trials_9.thisRepN,Trials_9.thisTrialN,Trials_9.thisN,Trials_9.thisIndex,Consent1_Image.started,Consent1_resp.started,Consent1_resp.keys,Consent2_Image.started,Consent2_resp.started,Consent2_resp.keys,Consent3_Image.started,Consent3_resp.started,Consent3_resp.keys,Placement_Image.started,Placement_resp.started,Placement_resp.keys,Instructions1_resp.started,Instructions1_image.started,Instructions1_resp.keys,Instructions2_resp.started,Instructions2_Image.started,Instructions2_resp.keys,Reminder1_Image.started,key_resp_3.started,key_resp_3.keys,key_resp_2.started,Instructions4_Txt.started,key_resp_2.keys,Interval_Text.started,Interval_Text.stopped,Interval_Blank.started,Interval_Blank.stopped,ISI_2.started,Distract.started,key_resp.started,Distract.stopped,Targ.started,Targ.stopped,key_resp.stopped,key_resp.keys,key_resp.corr,Response Key,Key Correct,PsychoPy Response Time (ms),Distractor_Onset_PsychoPy,Target_Onset_PsychoPy,Arduino Response Time (ms),Distractor_Onset_Arduino (ms),Target_Onset_Arduino (ms),Arduino Key Press Time (ms),Feedback,Message.started,Message.stopped,SecondPractice_Txt.started,SecondPractice_resp.started,SecondPractice_resp.keys,Reminder2_Image.started,Reminder2_resp.started,Reminder2_resp.keys,GoodJob_1.started,Ready_1.started,Eight_More.started,Ready_2.started,Seven_More.started,Ready_3.started,Six_More.started,Ready_4.started,Five_More.started,Ready_5.started,Four_More.started,Ready_6.started,Three_More.started,Ready_7.started,Two_More.started,Ready_8.started,One_More.started,Ready_9.started,Reminder2_resp.rt,key_resp.rt,Completion_Txt.started,Completion_resp.started,Completion_resp.keys,Completion_resp.rt,End_Response.started,Debrief1_Txt.started,End_Response.keys,End_Response.rt,Debrief2_Txt.started,Debrief2_resp.started,Debrief2_resp.keys,Debrief2_resp.rt,Debrief3_Txt.started,Debrief3_resp.started,Debrief3_resp.keys,Debrief3_resp.rt,participant,How old are you (in years)?,Are you male or female (M or F)?,Do you have normal vision and hearing (Y or N)?,date,expName,psychopyVersion,frameRate,
,,,,,,,,,,,,,,,,,,,,,,,,,,,,,,,,,,,,,,,,,,,,,,,,,,,,,,,45.701389099999915,45.701389099999915,None,,,,,,,,,,,,,,,,,,,,,,,,,,,,,,,,,,,,,,,,,,,,,,,,,,,,,,,,,,,,,,,,,,,,,,,,,,,,,,,,,,,,,,,,,657,29,M,Y,2022-10-25_18h18.22.999,Prime-Probe,2022.2.3,85.06974868697834,
,,,,,,,,,,,,,,,,,,,,,,,,,,,,,,,,,,,,,,,,,,,,,,,,,,,,,,,,,,50.28362670000001,50.28362670000001,None,,,,,,,,,,,,,,,,,,,,,,,,,,,,,,,,,,,,,,,,,,,,,,,,,,,,,,,,,,,,,,,,,,,,,,,,,,,,,,,,,,,,,,657,29,M,Y,2022-10-25_18h18.22.999,Prime-Probe,2022.2.3,85.06974868697834,
,,,,,,,,,,,,,,,,,,,,,,,,,,,,,,,,,,,,,,,,,,,,,,,,,,,,,,,,,,,,,50.28362670000001,50.28362670000001,None,,,,,,,,,,,,,,,,,,,,,,,,,,,,,,,,,,,,,,,,,,,,,,,,,,,,,,,,,,,,,,,,,,,,,,,,,,,,,,,,,,,657,29,M,Y,2022-10-25_18h18.22.999,Prime-Probe,2022.2.3,85.06974868697834,
,,,,,,,,,,,,,,,,,,,,,,,,,,,,,,,,,,,,,,,,,,,,,,,,,,,,,,,,,,,,,,,,52.49783439999999,52.49783439999999,None,,,,,,,,,,,,,,,,,,,,,,,,,,,,,,,,,,,,,,,,,,,,,,,,,,,,,,,,,,,,,,,,,,,,,,,,,,,,,,,,657,29,M,Y,2022-10-25_18h18.22.999,Prime-Probe,2022.2.3,85.06974868697834,
,,,,,,,,,,,,,,,,,,,,,,,,,,,,,,,,,,,,,,,,,,,,,,,,,,,,,,,,,,,,,,,,,,,52.49783439999999,52.49783439999999,None,,,,,,,,,,,,,,,,,,,,,,,,,,,,,,,,,,,,,,,,,,,,,,,,,,,,,,,,,,,,,,,,,,,,,,,,,,,,,657,29,M,Y,2022-10-25_18h18.22.999,Prime-Probe,2022.2.3,85.06974868697834,
,,,,,,,,,,,,,,,,,,,,,,,,,,,,,,,,,,,,,,,,,,,,,,,,,,,,,,,,,,,,,,,,,,,,,,54.26614429999995,54.26614429999995,None,,,,,,,,,,,,,,,,,,,,,,,,,,,,,,,,,,,,,,,,,,,,,,,,,,,,,,,,,,,,,,,,,,,,,,,,,,657,29,M,Y,2022-10-25_18h18.22.999,Prime-Probe,2022.2.3,85.06974868697834,
,,,,,,,,,,,,,,,,,,,,,,,,,,,,,,,,,,,,,,,,,,,,,,,,,,,,,,,,,,,,,,,,,,,,,,,,,57.08753509999997,57.08753509999997,None,,,,,,,,,,,,,,,,,,,,,,,,,,,,,,,,,,,,,,,,,,,,,,,,,,,,,,,,,,,,,,,,,,,,,,,657,29,M,Y,2022-10-25_18h18.22.999,Prime-Probe,2022.2.3,85.06974868697834,
,,,,,,,,,,,,,,,,,,,,,,,,,,,,,,,,,,,,,,,,,,,,,,,,,,,,,,,,,,,,,,,,,,,,,,,,,,,,58.18671799999993,58.18671799999993,None,,,,,,,,,,,,,,,,,,,,,,,,,,,,,,,,,,,,,,,,,,,,,,,,,,,,,,,,,,,,,,,,,,,,657,29,M,Y,2022-10-25_18h18.22.999,Prime-Probe,2022.2.3,85.06974868697834,
Practice,Visual_Stimuli/D_Right.png,Visual_Stimuli/T_Left.png,f,Incongruent,None,1,0,0,1,6,0,0,0,0,,,,,,,,,,,,,,,,,,,,,,,,,,,,,,,,,,,,,,,,,,,,,,,,,,,,,,,,,,,,,,,,,58.18671799999993,59.98784009999997,59.98784009999997,60.187560499999904,0.005593100000055529,60.64661530000001,60.68188079999993,60.74036430000001,61.587366299999985,61.681040499999995,63.186548000000016,None,0,F,True,399.56770000003416,0.5033844000000727,1.4436501000000135,375,22219,23160,23535,Correct,63.186548000000016,63.38628749999998,,,,,,,,,,,,,,,,,,,,,,,,,,,,,,,,,,,,,,,,,,,657,29,M,Y,2022-10-25_18h18.22.999,Prime-Probe,2022.2.3,85.06974868697834,
Practice,Visual_Stimuli/D_Down.png,Visual_Stimuli/T_Down.png,n,Congruent,Incongruent,4,2,4,2,10,0,1,1,1,,,,,,,,,,,,,,,,,,,,,,,,,,,,,,,,,,,,,,,,,,,,,,,,,,,,,,,,,,,,,,,,,,,,,0.0074266999999963446,63.84527119999996,63.88048029999993,63.938963899999976,64.78614979999998,64.87978479999992,66.3852053999999,None,0,N,True,434.7943000000214,0.5019635999999537,1.4424673999999413,413,25418,26358,26771,Correct,66.3852053999999,66.5850087,,,,,,,,,,,,,,,,,,,,,,,,,,,,,,,,,,,,,,,,,,,657,29,M,Y,2022-10-25_18h18.22.999,Prime-Probe,2022.2.3,85.06974868697834,
Practice,Visual_Stimuli/D_Right.png,Visual_Stimuli/T_Left.png,f,Incongruent,Congruent,1,0,0,1,6,0,2,2,2,,,,,,,,,,,,,,,,,,,,,,,,,,,,,,,,,,,,,,,,,,,,,,,,,,,,,,,,,,,,,,,,,,,,,0.006154299999934665,67.0558178,67.07917049999992,67.14946029999999,67.98481879999997,68.07860449999998,69.5838258,None,0,F,True,258.4186999999929,0.5006026999999449,1.4411889999998948,241,28616,29556,29797,Correct,69.5838258,69.78370739999991,,,,,,,,,,,,,,,,,,,,,,,,,,,,,,,,,,,,,,,,,,,657,29,M,Y,2022-10-25_18h18.22.999,Prime-Probe,2022.2.3,85.06974868697834,
Practice,Visual_Stimuli/D_Down.png,Visual_Stimuli/T_Up.png,j,Incongruent,Incongruent,4,2,2,4,8,0,3,3,3,,,,,,,,,,,,,,,,,,,,,,,,,,,,,,,,,,,,,,,,,,,,,,,,,,,,,,,,,,,,,,,,,,,,,0.0048489999999219435,70.2545174999999,70.28975719999994,70.34818499999994,71.18350909999992,71.27729409999995,,None,0,J,True,340.7398000000512,0.5112650999998323,1.4398377999998502,317,31826,32754,33071,Correct,72.7942673,,,,,,,,,,,,,,,,,,,,,,,,,,,,,,,,,,,,,,,,,,,,657,29,M,Y,2022-10-25_18h18.22.999,Prime-Probe,2022.2.3,85.06974868697834,
Practice,Visual_Stimuli/D_Right.png,Visual_Stimuli/T_Right.png,g,Congruent,Incongruent,1,0,1,0,7,0,4,4,4,,,,,,,,,,,,,,,,,,,,,,,,,,,,,,,,,,,,,,,,,,,,,,,,,,,,,,,,,,,,,,,,,,,,,0.004286499999807347,73.45314369999994,73.48835899999995,73.5469852,74.38215019999996,74.47597899999994,,None,0,G,True,364.38829999997324,0.5097746999998662,1.4385582999998405,337,35024,35955,36292,Correct,75.99320059999991,,,,,,,,,,,,,,,,,,,,,,,,,,,,,,,,,,,,,,,,,,,,657,29,M,Y,2022-10-25_18h18.22.999,Prime-Probe,2022.2.3,85.06974868697834,
Practice,Visual_Stimuli/D_Down.png,Visual_Stimuli/T_Down.png,n,Congruent,Congruent,4,2,4,2,10,0,5,5,5,,,,,,,,,,,,,,,,,,,,,,,,,,,,,,,,,,,,,,,,,,,,,,,,,,,,,,,,,,,,,,,,,,,,,0.002720299999737108,76.65182870000001,76.68706709999992,76.74558749999994,77.58093609999992,77.6747911,,None,0,N,True,364.3741000000773,0.5084802999997464,1.437326699999744,339,38222,39153,39492,Correct,79.19170659999997,,,,,,,,,,,,,,,,,,,,,,,,,,,,,,,,,,,,,,,,,,,,657,29,M,Y,2022-10-25_18h18.22.999,Prime-Probe,2022.2.3,85.06974868697834,
Practice,Visual_Stimuli/D_Left.png,Visual_Stimuli/T_Right.png,g,Incongruent,Congruent,0,1,1,0,7,0,6,6,6,,,,,,,,,,,,,,,,,,,,,,,,,,,,,,,,,,,,,,,,,,,,,,,,,,,,,,,,,,,,,,,,,,,,,0.0015944999997827836,79.85054289999994,79.88585389999992,79.94429129999992,80.77958339999998,80.87338209999996,82.39038999999991,None,0,G,True,340.5598999999029,0.5073785999996971,1.4362759999997934,325,41423,42351,42676,Correct,82.39038999999991,82.59044669999992,,,,,,,,,,,,,,,,,,,,,,,,,,,,,,,,,,,,,,,,,,,657,29,M,Y,2022-10-25_18h18.22.999,Prime-Probe,2022.2.3,85.06974868697834,
Practice,Visual_Stimuli/D_Down.png,Visual_Stimuli/T_Down.png,n,Congruent,Incongruent,4,2,4,2,10,0,7,7,7,,,,,,,,,,,,,,,,,,,,,,,,,,,,,,,,,,,,,,,,,,,,,,,,,,,,,,,,,,,,,,,,,,,,,0.0006715999996913524,83.04932799999995,83.08454519999998,83.14307479999991,83.97836380000001,84.07223069999998,85.58918169999993,None,0,N,True,352.6881999999887,0.5059668999997484,1.4346576999996614,327,44621,45550,45877,Correct,85.58918169999993,85.78910669999993,,,,,,,,,,,,,,,,,,,,,,,,,,,,,,,,,,,,,,,,,,,657,29,M,Y,2022-10-25_18h18.22.999,Prime-Probe,2022.2.3,85.06974868697834,
Practice,Visual_Stimuli/D_Right.png,Visual_Stimuli/T_Left.png,f,Incongruent,Congruent,1,0,0,1,6,0,8,8,8,,,,,,,,,,,,,,,,,,,,,,,,,,,,,,,,,,,,,,,,,,,,,,,,,,,,,,,,,,,,,,,,,,,,,-0.0005883000003450434,86.24802949999992,86.28328199999999,86.34181330000001,87.18883749999998,87.28264479999996,88.78796739999996,None,0,F,True,305.4406999999628,0.5047511999996459,1.4334360999996534,278,47819,48748,49026,Correct,88.78796739999996,88.98770109999998,,,,,,,,,,,,,,,,,,,,,,,,,,,,,,,,,,,,,,,,,,,657,29,M,Y,2022-10-25_18h18.22.999,Prime-Probe,2022.2.3,85.06974868697834,
Practice,Visual_Stimuli/D_Up.png,Visual_Stimuli/T_Up.png,j,Congruent,Incongruent,2,4,2,4,8,0,9,9,9,,,,,,,,,,,,,,,,,,,,,,,,,,,,,,,,,,,,,,,,,,,,,,,,,,,,,,,,,,,,,,,,,,,,,0.008847699999591896,89.44693859999995,89.482035,89.54055719999997,90.38752189999991,90.48146909999991,91.98661989999994,None,0,J,True,293.7710999999581,0.5034570999996504,1.4438064999995959,277,51018,51958,52235,Correct,91.98661989999994,92.18654329999993,,,,,,,,,,,,,,,,,,,,,,,,,,,,,,,,,,,,,,,,,,,657,29,M,Y,2022-10-25_18h18.22.999,Prime-Probe,2022.2.3,85.06974868697834,
Practice,Visual_Stimuli/D_Left.png,Visual_Stimuli/T_Left.png,f,Congruent,Congruent,0,1,0,1,6,0,10,10,10,,,,,,,,,,,,,,,,,,,,,,,,,,,,,,,,,,,,,,,,,,,,,,,,,,,,,,,,,,,,,,,,,,,,,0.007685699999569806,92.64573179999991,92.68061279999995,92.7392271,93.58641669999997,93.68001909999998,95.18537289999995,None,0,F,True,270.2163000000155,0.501973899999598,1.4426983999995855,249,54216,55156,55405,Correct,95.18537289999995,95.38525419999996,,,,,,,,,,,,,,,,,,,,,,,,,,,,,,,,,,,,,,,,,,,657,29,M,Y,2022-10-25_18h18.22.999,Prime-Probe,2022.2.3,85.06974868697834,
Practice,Visual_Stimuli/D_Up.png,Visual_Stimuli/T_Down.png,n,Incongruent,Congruent,2,4,4,2,10,0,11,11,11,,,,,,,,,,,,,,,,,,,,,,,,,,,,,,,,,,,,,,,,,,,,,,,,,,,,,,,,,,,,,,,,,,,,,0.00639889999956722,95.85592220000001,95.87935899999991,95.94978759999992,96.78507909999996,96.87877189999995,98.38410139999996,None,0,N,True,317.16960000005656,0.5007611999994879,1.4414382999995041,291,57414,58356,58647,Correct,98.38410139999996,98.58402219999994,,,,,,,,,,,,,,,,,,,,,,,,,,,,,,,,,,,,,,,,,,,657,29,M,Y,2022-10-25_18h18.22.999,Prime-Probe,2022.2.3,85.06974868697834,
Practice,Visual_Stimuli/D_Left.png,Visual_Stimuli/T_Right.png,g,Incongruent,Incongruent,0,1,1,0,7,0,12,12,12,,,,,,,,,,,,,,,,,,,,,,,,,,,,,,,,,,,,,,,,,,,,,,,,,,,,,,,,,,,,,,,,,,,,,0.0051658999994970145,99.05464569999992,99.07803219999994,99.14850630000001,99.98366739999994,100.07763339999997,101.58280009999999,None,0,G,True,434.90410000003976,0.5109906999995246,1.4400378999994246,417,60624,61555,61972,Correct,101.58280009999999,101.78267759999994,,,,,,,,,,,,,,,,,,,,,,,,,,,,,,,,,,,,,,,,,,,657,29,M,Y,2022-10-25_18h18.22.999,Prime-Probe,2022.2.3,85.06974868697834,
Practice,Visual_Stimuli/D_Up.png,Visual_Stimuli/T_Down.png,n,Incongruent,Incongruent,2,4,4,2,10,0,13,13,13,,,,,,,,,,,,,,,,,,,,,,,,,,,,,,,,,,,,,,,,,,,,,,,,,,,,,,,,,,,,,,,,,,,,,0.0038296999994145153,102.25382709999997,102.28855869999995,102.34713969999996,103.1825250999999,103.2764105,,None,0,N,True,352.5860999999395,0.510011099999474,1.4387237999994795,331,63823,64753,65084,Correct,104.79319720000001,,,,,,,,,,,,,,,,,,,,,,,,,,,,,,,,,,,,,,,,,,,,657,29,M,Y,2022-10-25_18h18.22.999,Prime-Probe,2022.2.3,85.06974868697834,
Practice,Visual_Stimuli/D_Right.png,Visual_Stimuli/T_Right.png,g,Congruent,Incongruent,1,0,1,0,7,0,14,14,14,,,,,,,,,,,,,,,,,,,,,,,,,,,,,,,,,,,,,,,,,,,,,,,,,,,,,,,,,,,,,,,,,,,,,0.003276199999390883,105.45263749999992,105.48735409999995,105.54584909999994,106.38113209999995,106.47487909999995,,None,0,G,True,340.4821000000311,0.5087870999993811,1.437736499999346,326,67023,67951,68277,Correct,107.99193619999994,,,,,,,,,,,,,,,,,,,,,,,,,,,,,,,,,,,,,,,,,,,,657,29,M,Y,2022-10-25_18h18.22.999,Prime-Probe,2022.2.3,85.06974868697834,
Practice,Visual_Stimuli/D_Up.png,Visual_Stimuli/T_Up.png,j,Congruent,Congruent,2,4,2,4,8,0,15,15,15,,,,,,,,,,,,,,,,,,,,,,,,,,,,,,,,,,,,,,,,,,,,,,,,,,,,,,,,,,,,,,,,,,,,,0.001864799999339084,108.65083129999994,108.68615249999993,108.74455369999998,109.57978589999993,109.67363039999998,111.1906626,None,0,J,True,340.8681000000797,0.5076562999993257,1.4361983999992844,314,70221,71150,71464,Correct,111.1906626,,,,,,,,,,,,,,,,,,,,,,,,,,,,,,,,,,,,,,,,,,,,657,29,M,Y,2022-10-25_18h18.22.999,Prime-Probe,2022.2.3,85.06974868697834,
Practice,Visual_Stimuli/D_Right.png,Visual_Stimuli/T_Right.png,g,Congruent,Congruent,1,0,1,0,7,0,16,16,16,,,,,,,,,,,,,,,,,,,,,,,,,,,,,,,,,,,,,,,,,,,,,,,,,,,,,,,,,,,,,,,,,,,,,0.0005567999993445483,111.84952939999994,111.88479819999998,111.94332459999998,112.77857099999994,112.87230690000001,114.38941,None,0,G,True,340.8765000000358,0.5063912999993363,1.4349072999992813,318,73419,74348,74666,Correct,114.38941,114.58933200000001,,,,,,,,,,,,,,,,,,,,,,,,,,,,,,,,,,,,,,,,,,,657,29,M,Y,2022-10-25_18h18.22.999,Prime-Probe,2022.2.3,85.06974868697834,
Practice,Visual_Stimuli/D_Up.png,Visual_Stimuli/T_Up.png,j,Congruent,Congruent,2,4,2,4,8,0,17,17,17,,,,,,,,,,,,,,,,,,,,,,,,,,,,,,,,,,,,,,,,,,,,,,,,,,,,,,,,,,,,,,,,,,,,,-0.00029460000075687276,115.04842399999995,115.0834716999999,115.14206969999998,115.98907109999993,116.08284559999993,117.58811749999995,None,0,J,True,305.54319999998825,0.5049480999992966,1.4336207999992894,289,76618,77546,77835,Correct,117.58811749999995,117.88092269999993,,,,,,,,,,,,,,,,,,,,,,,,,,,,,,,,,,,,,,,,,,,657,29,M,Y,2022-10-25_18h18.22.999,Prime-Probe,2022.2.3,85.06974868697834,
,,,,,,,,,,,,,,,,,,,,,,,,,,,,,,,,,,,,,,,,,,,,,,,,,,,,,,,,,,,,,,,,,,,,,,,,,,,,,,,,,,,,,,,,,,,,,,,,,,,,,,,,117.88092269999993,117.88092269999993,None,,,,,,,,,,,,,,,,,,,,,,,,,,,,,,,,,,,,,,,,657,29,M,Y,2022-10-25_18h18.22.999,Prime-Probe,2022.2.3,85.06974868697834,
,,,,,,,,,,,,,,,,,,,,,,,,,,,,,,,,,,,,,,,,,,,,,,,,,,,,,,,,,,,,,,,,,,,,,,,,,,,,,,,,,,,,,,,,,,,,,,,,,,,,,,,,,,,119.18595970000001,119.18595970000001,None,,,,,,,,,,,,,,,,,,,,,,,,,,,,,,,,,,,,,657,29,M,Y,2022-10-25_18h18.22.999,Prime-Probe,2022.2.3,85.06974868697834,
Practice,Visual_Stimuli/D_Left.png,Visual_Stimuli/T_Left.png,f,Congruent,Congruent,0,1,0,1,6,,,,,0,0,0,0,,,,,,,,,,,,,,,,,,,,,,,,,,,,,,,,,,,,,,,,,,,,,,,,,,,,,,,,,,,,,119.18595970000001,120.98680219999994,120.98680219999994,121.18663589999994,0.003453100000001541,121.65740310000001,121.69266789999995,121.7511505,122.58653919999995,122.6802103,,None,0,F,True,270.2221000000691,0.5097377999999253,1.4384123999999474,246,83227,84155,84401,Correct,124.19722979999995,,,,,,,,,,,,,,,,,,,,,,,,,,,,,,,,,,,,,,,,,,,,657,29,M,Y,2022-10-25_18h18.22.999,Prime-Probe,2022.2.3,85.06974868697834,
Practice,Visual_Stimuli/D_Up.png,Visual_Stimuli/T_Down.png,n,Incongruent,Congruent,2,4,4,2,10,,,,,0,1,1,1,,,,,,,,,,,,,,,,,,,,,,,,,,,,,,,,,,,,,,,,,,,,,,,,,,,,,,,,,,,,,,,,,0.0029560999998921034,124.85624939999991,124.8913058999999,124.94995959999994,125.78514599999994,125.87896009999997,,None,0,N,True,411.3618999999744,0.5083625999999413,1.437136599999917,390,86425,87356,87746,Correct,127.39614789999996,,,,,,,,,,,,,,,,,,,,,,,,,,,,,,,,,,,,,,,,,,,,657,29,M,Y,2022-10-25_18h18.22.999,Prime-Probe,2022.2.3,85.06974868697834,
Practice,Visual_Stimuli/D_Left.png,Visual_Stimuli/T_Left.png,f,Congruent,Incongruent,0,1,0,1,6,,,,,0,2,2,2,,,,,,,,,,,,,,,,,,,,,,,,,,,,,,,,,,,,,,,,,,,,,,,,,,,,,,,,,,,,,,,,,0.0015427999999246822,128.05489349999993,128.09001669999998,128.14861239999993,128.98392639999997,129.0776343,130.59467999999993,None,0,F,True,281.82890000005045,0.507061899999826,1.436009499999841,255,89623,90554,90809,Correct,130.59467999999993,130.794573,,,,,,,,,,,,,,,,,,,,,,,,,,,,,,,,,,,,,,,,,,,657,29,M,Y,2022-10-25_18h18.22.999,Prime-Probe,2022.2.3,85.06974868697834,
Practice,Visual_Stimuli/D_Down.png,Visual_Stimuli/T_Up.png,j,Incongruent,Congruent,4,2,2,4,8,,,,,0,3,3,3,,,,,,,,,,,,,,,,,,,,,,,,,,,,,,,,,,,,,,,,,,,,,,,,,,,,,,,,,,,,,,,,,0.0008373999997957071,131.25367459999995,131.28883069999995,131.34722939999995,132.18264239999996,132.2764227,133.79338729999995,None,0,J,True,317.334800000026,0.5058604999998124,1.4346419999998261,299,92824,93752,94051,Correct,133.79338729999995,133.9933314,,,,,,,,,,,,,,,,,,,,,,,,,,,,,,,,,,,,,,,,,,,657,29,M,Y,2022-10-25_18h18.22.999,Prime-Probe,2022.2.3,85.06974868697834,
Practice,Visual_Stimuli/D_Left.png,Visual_Stimuli/T_Right.png,g,Incongruent,Incongruent,0,1,1,0,7,,,,,0,4,4,4,,,,,,,,,,,,,,,,,,,,,,,,,,,,,,,,,,,,,,,,,,,,,,,,,,,,,,,,,,,,,,,,,-0.0005481000001736902,134.4523322,134.4875811999999,134.54610809999997,135.39316259999998,135.4871362,136.99216339999998,None,0,G,True,364.16320000000724,0.5046917999998186,1.4333701999997857,344,96022,96951,97295,Correct,136.99216339999998,137.19203619999996,,,,,,,,,,,,,,,,,,,,,,,,,,,,,,,,,,,,,,,,,,,657,29,M,Y,2022-10-25_18h18.22.999,Prime-Probe,2022.2.3,85.06974868697834,
Practice,Visual_Stimuli/D_Down.png,Visual_Stimuli/T_Up.png,j,Incongruent,Incongruent,4,2,2,4,8,,,,,0,5,5,5,,,,,,,,,,,,,,,,,,,,,,,,,,,,,,,,,,,,,,,,,,,,,,,,,,,,,,,,,,,,,,,,,0.00881649999973888,137.65091689999997,137.6861735,137.7446961999999,138.5918137,138.68558869999993,140.19082819999994,None,0,J,True,446.7914000000519,0.5032526999997344,1.443709499999727,429,99220,100161,100590,Correct,140.19082819999994,140.4949401,,,,,,,,,,,,,,,,,,,,,,,,,,,,,,,,,,,,,,,,,,,657,29,M,Y,2022-10-25_18h18.22.999,Prime-Probe,2022.2.3,85.06974868697834,
,,,,,,,,,,,,,,,,,,,,,,,,,,,,,,,,,,,,,,,,,,,,,,,,,,,,,,,,,,,,,,,,,,,,,,,,,,,,,,,,,,,,,,,,,,,,,,,,,,,,,,,,,,,141.80092209999998,141.80092209999998,None,140.4949401,140.4949401,,,,,,,,,,,,,,,,,,,,,,,,,,,,,,,,,,,657,29,M,Y,2022-10-25_18h18.22.999,Prime-Probe,2022.2.3,85.06974868697834,
Test,Visual_Stimuli/D_Left.png,Visual_Stimuli/T_Left.png,f,Congruent,None,0,1,0,1,6,,,,,,,,,0,0,0,0,,,,,,,,,,,,,,,,,,,,,,,,,,,,,,,,,,,,,,,,,,,,,,,,,,,,,,,,,141.80092209999998,143.60123049999993,143.60123049999993,143.8011348,0.00031219999993936653,144.27189709999993,144.3070725,144.365589,145.20104800000001,145.29460059999997,,None,0,F,True,305.47200000000885,0.5095761000000039,1.4383726999999453,289,105841,106770,107059,Correct,146.81170859999997,,,,,,,,,,,,,,,,,,,,,,,,,,,,,,,,,,,,,,,,,,,,657,29,M,Y,2022-10-25_18h18.22.999,Prime-Probe,2022.2.3,85.06974868697834,
Test,Visual_Stimuli/D_Up.png,Visual_Stimuli/T_Up.png,j,Congruent,Congruent,2,4,2,4,8,,,,,,,,,0,1,1,1,,,,,,,,,,,,,,,,,,,,,,,,,,,,,,,,,,,,,,,,,,,,,,,,,,,,,,,,,,,,,0.002725799999893752,147.4706317,147.50580479999985,147.56439619999992,148.39965699999993,148.49344730000007,,None,0,J,True,387.9068000001098,0.5083223000000316,1.4370129999998653,370,109039,109968,110338,Correct,150.01037799999995,,,,,,,,,,,,,,,,,,,,,,,,,,,,,,,,,,,,,,,,,,,,657,29,M,Y,2022-10-25_18h18.22.999,Prime-Probe,2022.2.3,85.06974868697834,
Test,Visual_Stimuli/D_Right.png,Visual_Stimuli/T_Left.png,f,Incongruent,Congruent,1,0,0,1,6,,,,,,,,,0,2,2,2,,,,,,,,,,,,,,,,,,,,,,,,,,,,,,,,,,,,,,,,,,,,,,,,,,,,,,,,,,,,,0.0013959000000340893,150.66933829999994,150.70450449999998,150.7630655999999,151.59852739999997,151.69211109999992,153.20914249999987,None,0,F,True,364.3170000000282,0.5069874000000709,1.4356700000000728,337,112238,113168,113505,Correct,153.20914249999987,153.4090157999999,,,,,,,,,,,,,,,,,,,,,,,,,,,,,,,,,,,,,,,,,,,657,29,M,Y,2022-10-25_18h18.22.999,Prime-Probe,2022.2.3,85.06974868697834,
Test,Visual_Stimuli/D_Up.png,Visual_Stimuli/T_Up.png,j,Congruent,Incongruent,2,4,2,4,8,,,,,,,,,0,3,3,3,,,,,,,,,,,,,,,,,,,,,,,,,,,,,,,,,,,,,,,,,,,,,,,,,,,,,,,,,,,,,0.0003950000000259024,153.86805630000003,153.90327980000006,153.96179069999994,154.808763,154.90253329999996,156.40782579999996,None,0,J,True,352.6050000000396,0.505784100000028,1.4344125999998596,331,115436,116364,116695,Correct,156.40782579999996,156.60778069999992,,,,,,,,,,,,,,,,,,,,,,,,,,,,,,,,,,,,,,,,,,,657,29,M,Y,2022-10-25_18h18.22.999,Prime-Probe,2022.2.3,85.06974868697834,
Test,Visual_Stimuli/D_Left.png,Visual_Stimuli/T_Right.png,g,Incongruent,Congruent,0,1,1,0,7,,,,,,,,,0,4,4,4,,,,,,,,,,,,,,,,,,,,,,,,,,,,,,,,,,,,,,,,,,,,,,,,,,,,,,,,,,,,,-0.000439300000152798,157.06670689999987,157.10185609999985,157.16050229999996,158.0075311999999,158.10134930000004,159.60652879999998,None,0,G,True,352.47079999999187,0.5043100999998842,1.433193699999947,328,118634,119565,119893,Correct,159.60652879999998,159.80655279999996,,,,,,,,,,,,,,,,,,,,,,,,,,,,,,,,,,,,,,,,,,,657,29,M,Y,2022-10-25_18h18.22.999,Prime-Probe,2022.2.3,85.06974868697834,
Test,Visual_Stimuli/D_Up.png,Visual_Stimuli/T_Down.png,n,Incongruent,Incongruent,2,4,4,2,10,,,,,,,,,0,5,5,5,,,,,,,,,,,,,,,,,,,,,,,,,,,,,,,,,,,,,,,,,,,,,,,,,,,,,,,,,,,,,0.00873249999995096,160.2655095,160.30062989999988,160.35924269999987,161.20615679999992,161.3000439,162.80558840000003,None,0,N,True,340.73910000006435,0.5031354999998712,1.4436088999998447,316,121834,122775,123091,Correct,162.80558840000003,163.0051716999999,,,,,,,,,,,,,,,,,,,,,,,,,,,,,,,,,,,,,,,,,,,657,29,M,Y,2022-10-25_18h18.22.999,Prime-Probe,2022.2.3,85.06974868697834,
Test,Visual_Stimuli/D_Right.png,Visual_Stimuli/T_Right.png,g,Congruent,Incongruent,1,0,1,0,7,,,,,,,,,0,6,6,6,,,,,,,,,,,,,,,,,,,,,,,,,,,,,,,,,,,,,,,,,,,,,,,,,,,,,,,,,,,,,0.007399299999860887,163.4641744999999,163.49933880000003,163.55795039999998,164.40491629999997,164.49874520000003,166.00413409999987,None,0,G,True,423.2973000000584,0.5017780999999104,1.4422849999998562,405,125033,125973,126378,Correct,166.00413409999987,166.20389419999992,,,,,,,,,,,,,,,,,,,,,,,,,,,,,,,,,,,,,,,,,,,657,29,M,Y,2022-10-25_18h18.22.999,Prime-Probe,2022.2.3,85.06974868697834,
Test,Visual_Stimuli/D_Up.png,Visual_Stimuli/T_Up.png,j,Congruent,Congruent,2,4,2,4,8,,,,,,,,,0,7,7,7,,,,,,,,,,,,,,,,,,,,,,,,,,,,,,,,,,,,,,,,,,,,,,,,,,,,,,,,,,,,,0.00612099999966631,166.67469800000003,166.6981495,166.76839359999985,167.60386449999987,167.69765549999988,169.20281920000002,None,0,J,True,364.339100000052,0.5008402999997088,1.441052199999831,339,128231,129171,129510,Correct,169.20281920000002,169.40270659999987,,,,,,,,,,,,,,,,,,,,,,,,,,,,,,,,,,,,,,,,,,,657,29,M,Y,2022-10-25_18h18.22.999,Prime-Probe,2022.2.3,85.06974868697834,
Test,Visual_Stimuli/D_Left.png,Visual_Stimuli/T_Right.png,g,Incongruent,Congruent,0,1,1,0,7,,,,,,,,,0,8,8,8,,,,,,,,,,,,,,,,,,,,,,,,,,,,,,,,,,,,,,,,,,,,,,,,,,,,,,,,,,,,,0.004938999999694715,169.87360939999985,169.90862909999987,169.96712579999985,170.80256059999988,170.89630039999997,,None,0,G,True,328.850999999986,0.5111521999997422,1.4399346999996396,307,131441,132370,132677,Correct,172.41322609999997,,,,,,,,,,,,,,,,,,,,,,,,,,,,,,,,,,,,,,,,,,,,657,29,M,Y,2022-10-25_18h18.22.999,Prime-Probe,2022.2.3,85.06974868697834,
Test,Visual_Stimuli/D_Down.png,Visual_Stimuli/T_Down.png,n,Congruent,Incongruent,4,2,4,2,10,,,,,,,,,0,9,9,9,,,,,,,,,,,,,,,,,,,,,,,,,,,,,,,,,,,,,,,,,,,,,,,,,,,,,,,,,,,,,0.00411199999962264,173.07222490000004,173.10723719999987,173.16597890000003,174.00123359999998,174.09487739999986,,None,0,N,True,328.6931000000095,0.50973209999961,1.4388425999995889,309,134640,135568,135877,Correct,175.61192469999992,,,,,,,,,,,,,,,,,,,,,,,,,,,,,,,,,,,,,,,,,,,,657,29,M,Y,2022-10-25_18h18.22.999,Prime-Probe,2022.2.3,85.06974868697834,
Test,Visual_Stimuli/D_Left.png,Visual_Stimuli/T_Left.png,f,Congruent,Congruent,0,1,0,1,6,,,,,,,,,0,10,10,10,,,,,,,,,,,,,,,,,,,,,,,,,,,,,,,,,,,,,,,,,,,,,,,,,,,,,,,,,,,,,0.0032114999996792903,176.27078149999988,176.30611520000002,176.3645583,177.19981299999995,177.29353909999986,,None,0,F,True,258.4430000001703,0.5086818999996012,1.4372560999995585,236,137838,138766,139002,Correct,178.81065549999994,,,,,,,,,,,,,,,,,,,,,,,,,,,,,,,,,,,,,,,,,,,,657,29,M,Y,2022-10-25_18h18.22.999,Prime-Probe,2022.2.3,85.06974868697834,
Test,Visual_Stimuli/D_Up.png,Visual_Stimuli/T_Down.png,n,Incongruent,Congruent,2,4,4,2,10,,,,,,,,,0,11,11,11,,,,,,,,,,,,,,,,,,,,,,,,,,,,,,,,,,,,,,,,,,,,,,,,,,,,,,,,,,,,,0.002017499999510619,179.46953489999987,179.50471709999988,179.56328359999998,180.3986958999999,180.49236459999997,,None,0,N,True,341.06820000010885,0.507242999999562,1.4359581999995044,318,141036,141967,142285,Correct,182.00942259999988,182.20927589999997,,,,,,,,,,,,,,,,,,,,,,,,,,,,,,,,,,,,,,,,,,,657,29,M,Y,2022-10-25_18h18.22.999,Prime-Probe,2022.2.3,85.06974868697834,
Test,Visual_Stimuli/D_Left.png,Visual_Stimuli/T_Left.png,f,Congruent,Incongruent,0,1,0,1,6,,,,,,,,,0,12,12,12,,,,,,,,,,,,,,,,,,,,,,,,,,,,,,,,,,,,,,,,,,,,,,,,,,,,,,,,,,,,,0.0006732999995620048,182.6683051,182.70347549999997,182.76196559999994,183.59733519999986,183.69102939999993,185.20808399999987,None,0,F,True,246.7764000000443,0.5059345999995912,1.4346073999995497,220,144234,145165,145385,Correct,185.20808399999987,185.40802469999994,,,,,,,,,,,,,,,,,,,,,,,,,,,,,,,,,,,,,,,,,,,657,29,M,Y,2022-10-25_18h18.22.999,Prime-Probe,2022.2.3,85.06974868697834,
Test,Visual_Stimuli/D_Down.png,Visual_Stimuli/T_Up.png,j,Incongruent,Congruent,4,2,2,4,8,,,,,,,,,0,13,13,13,,,,,,,,,,,,,,,,,,,,,,,,,,,,,,,,,,,,,,,,,,,,,,,,,,,,,,,,,,,,,-0.0002919000005476846,185.8670113999999,185.90220279999994,185.96076049999988,186.80827099999988,186.90165660000002,188.4067705,None,0,J,True,329.0607999999793,0.5046616999995877,1.433359199999586,307,147435,148363,148670,Correct,188.4067705,188.60673859999997,,,,,,,,,,,,,,,,,,,,,,,,,,,,,,,,,,,,,,,,,,,657,29,M,Y,2022-10-25_18h18.22.999,Prime-Probe,2022.2.3,85.06974868697834,
Test,Visual_Stimuli/D_Right.png,Visual_Stimuli/T_Left.png,f,Incongruent,Incongruent,1,0,0,1,6,,,,,,,,,0,14,14,14,,,,,,,,,,,,,,,,,,,,,,,,,,,,,,,,,,,,,,,,,,,,,,,,,,,,,,,,,,,,,0.008919899999455083,189.06583309999996,189.1008526999999,189.15954569999985,190.006533,190.10024879999992,191.60555969999996,None,0,F,True,317.22910000007687,0.5033531999995375,1.4439345999994657,295,150633,151573,151868,Correct,191.60555969999996,191.80548499999986,,,,,,,,,,,,,,,,,,,,,,,,,,,,,,,,,,,,,,,,,,,657,29,M,Y,2022-10-25_18h18.22.999,Prime-Probe,2022.2.3,85.06974868697834,
Test,Visual_Stimuli/D_Down.png,Visual_Stimuli/T_Up.png,j,Incongruent,Incongruent,4,2,2,4,8,,,,,,,,,0,15,15,15,,,,,,,,,,,,,,,,,,,,,,,,,,,,,,,,,,,,,,,,,,,,,,,,,,,,,,,,,,,,,0.007698799999388939,192.2644112999999,192.29956949999996,192.35817309999993,193.20524669999986,193.29899810000006,194.8042969999999,None,0,J,True,387.6772000000983,0.5021157999995012,1.4427623999993102,362,153831,154772,155134,Correct,194.8042969999999,195.00418530000002,,,,,,,,,,,,,,,,,,,,,,,,,,,,,,,,,,,,,,,,,,,657,29,M,Y,2022-10-25_18h18.22.999,Prime-Probe,2022.2.3,85.06974868697834,
Test,Visual_Stimuli/D_Right.png,Visual_Stimuli/T_Left.png,f,Incongruent,Incongruent,1,0,0,1,6,,,,,,,,,0,16,16,16,,,,,,,,,,,,,,,,,,,,,,,,,,,,,,,,,,,,,,,,,,,,,,,,,,,,,,,,,,,,,0.006372399999463596,195.47496569999998,195.49830029999998,195.5686900999999,196.40387740000006,196.4977492999999,198.00288509999996,None,0,F,True,317.0902000001661,0.5007868999994116,1.441336099999262,293,157029,157970,158263,Correct,198.00288509999996,198.20294190000004,,,,,,,,,,,,,,,,,,,,,,,,,,,,,,,,,,,,,,,,,,,657,29,M,Y,2022-10-25_18h18.22.999,Prime-Probe,2022.2.3,85.06974868697834,
Test,Visual_Stimuli/D_Down.png,Visual_Stimuli/T_Down.png,n,Congruent,Incongruent,4,2,4,2,10,,,,,,,,,0,17,17,17,,,,,,,,,,,,,,,,,,,,,,,,,,,,,,,,,,,,,,,,,,,,,,,,,,,,,,,,,,,,,0.005154399999355519,198.67359740000006,198.69711619999998,198.76736929999993,199.60269470000003,199.6964473999999,201.20206299999995,None,0,N,True,317.218000000139,0.5110461999993277,1.440034199999218,297,160239,161168,161465,Correct,201.20206299999995,201.40165120000006,,,,,,,,,,,,,,,,,,,,,,,,,,,,,,,,,,,,,,,,,,,657,29,M,Y,2022-10-25_18h18.22.999,Prime-Probe,2022.2.3,85.06974868697834,
Test,Visual_Stimuli/D_Right.png,Visual_Stimuli/T_Right.png,g,Congruent,Congruent,1,0,1,0,7,,,,,,,,,0,18,18,18,,,,,,,,,,,,,,,,,,,,,,,,,,,,,,,,,,,,,,,,,,,,,,,,,,,,,,,,,,,,,0.0038312999993195263,201.87233270000002,201.90757269999995,201.96624099999985,202.80138199999988,202.89519960000007,,None,0,G,True,305.45870000014474,0.5100500999992619,1.4388280999992276,282,163438,164368,164650,Correct,204.41222879999987,,,,,,,,,,,,,,,,,,,,,,,,,,,,,,,,,,,,,,,,,,,,657,29,M,Y,2022-10-25_18h18.22.999,Prime-Probe,2022.2.3,85.06974868697834,
Test,Visual_Stimuli/D_Down.png,Visual_Stimuli/T_Up.png,j,Incongruent,Congruent,4,2,2,4,8,,,,,,,,,0,19,19,19,,,,,,,,,,,,,,,,,,,,,,,,,,,,,,,,,,,,,,,,,,,,,,,,,,,,,,,,,,,,,0.00310329999933856,205.0710509999999,205.10631319999993,205.16481329999988,206.0001889,206.09386769999992,,None,0,J,True,317.24179999991975,0.5088192999992316,1.4374740999992355,292,166638,167567,167859,Correct,207.61092489999987,,,,,,,,,,,,,,,,,,,,,,,,,,,,,,,,,,,,,,,,,,,,657,29,M,Y,2022-10-25_18h18.22.999,Prime-Probe,2022.2.3,85.06974868697834,
Test,Visual_Stimuli/D_Left.png,Visual_Stimuli/T_Right.png,g,Incongruent,Incongruent,0,1,1,0,7,,,,,,,,,0,20,20,20,,,,,,,,,,,,,,,,,,,,,,,,,,,,,,,,,,,,,,,,,,,,,,,,,,,,,,,,,,,,,0.0020310999991579592,208.2697682999999,208.30504799999994,208.36347409999985,209.19884189999993,209.29265499999997,,None,0,G,True,340.68070000012085,0.5075184999991507,1.4361763999991126,316,169836,170765,171081,Correct,210.80962210000007,211.00953170000003,,,,,,,,,,,,,,,,,,,,,,,,,,,,,,,,,,,,,,,,,,,657,29,M,Y,2022-10-25_18h18.22.999,Prime-Probe,2022.2.3,85.06974868697834,
Test,Visual_Stimuli/D_Up.png,Visual_Stimuli/T_Down.png,n,Incongruent,Incongruent,2,4,4,2,10,,,,,,,,,0,21,21,21,,,,,,,,,,,,,,,,,,,,,,,,,,,,,,,,,,,,,,,,,,,,,,,,,,,,,,,,,,,,,0.0008407999991959514,211.46838879999996,211.50365169999986,211.56220949999988,212.3975329,212.49128210000003,214.00831440000002,None,0,N,True,399.7524000001249,0.5061866999990343,1.4350218999991284,383,173035,173963,174346,Correct,214.00831440000002,214.20826499999998,,,,,,,,,,,,,,,,,,,,,,,,,,,,,,,,,,,,,,,,,,,657,29,M,Y,2022-10-25_18h18.22.999,Prime-Probe,2022.2.3,85.06974868697834,
Test,Visual_Stimuli/D_Right.png,Visual_Stimuli/T_Right.png,g,Congruent,Incongruent,1,0,1,0,7,,,,,,,,,0,22,22,22,,,,,,,,,,,,,,,,,,,,,,,,,,,,,,,,,,,,,,,,,,,,,,,,,,,,,,,,,,,,,-0.00040930000091066177,214.66716300000007,214.70248560000005,214.76104680000003,215.60798550000004,215.70182899999986,217.2071552,None,0,G,True,352.52680000007786,0.5049724999989849,1.4336663999990833,332,176233,177161,177493,Correct,217.2071552,217.40697449999993,,,,,,,,,,,,,,,,,,,,,,,,,,,,,,,,,,,,,,,,,,,657,29,M,Y,2022-10-25_18h18.22.999,Prime-Probe,2022.2.3,85.06974868697834,
Test,Visual_Stimuli/D_Down.png,Visual_Stimuli/T_Up.png,j,Incongruent,Congruent,4,2,2,4,8,,,,,,,,,0,23,23,23,,,,,,,,,,,,,,,,,,,,,,,,,,,,,,,,,,,,,,,,,,,,,,,,,,,,,,,,,,,,,0.00917419999905178,217.86593390000007,217.9010905,217.95968679999987,218.80675999999994,218.9005170999999,220.40572299999985,None,0,J,True,329.0996999999152,0.503549399998974,1.444026999999096,305,179431,180371,180676,Correct,220.40572299999985,220.6057452,,,,,,,,,,,,,,,,,,,,,,,,,,,,,,,,,,,,,,,,,,,657,29,M,Y,2022-10-25_18h18.22.999,Prime-Probe,2022.2.3,85.06974868697834,
Test,Visual_Stimuli/D_Right.png,Visual_Stimuli/T_Left.png,f,Incongruent,Incongruent,1,0,0,1,6,,,,,,,,,0,24,24,24,,,,,,,,,,,,,,,,,,,,,,,,,,,,,,,,,,,,,,,,,,,,,,,,,,,,,,,,,,,,,0.008013299998992807,221.0649833,221.09983650000004,221.15838159999998,222.00551930000006,222.09922619999998,223.60444510000002,None,0,F,True,293.8317000000552,0.5023259999989023,1.442813599998999,270,182629,183570,183840,Correct,223.60444510000002,223.8045267,,,,,,,,,,,,,,,,,,,,,,,,,,,,,,,,,,,,,,,,,,,657,29,M,Y,2022-10-25_18h18.22.999,Prime-Probe,2022.2.3,85.06974868697834,
Test,Visual_Stimuli/D_Down.png,Visual_Stimuli/T_Up.png,j,Incongruent,Incongruent,4,2,2,4,8,,,,,,,,,0,25,25,25,,,,,,,,,,,,,,,,,,,,,,,,,,,,,,,,,,,,,,,,,,,,,,,,,,,,,,,,,,,,,0.006709499999033142,224.27538389999995,224.29917150000006,224.3689342,225.2042219,225.29795549999994,226.80322780000006,None,0,J,True,305.5554000000029,0.5017624999989039,1.441491399998995,286,185830,186770,187056,Correct,226.80322780000006,227.00309149999998,,,,,,,,,,,,,,,,,,,,,,,,,,,,,,,,,,,,,,,,,,,657,29,M,Y,2022-10-25_18h18.22.999,Prime-Probe,2022.2.3,85.06974868697834,
Test,Visual_Stimuli/D_Right.png,Visual_Stimuli/T_Left.png,f,Incongruent,Incongruent,1,0,0,1,6,,,,,,,,,0,26,26,26,,,,,,,,,,,,,,,,,,,,,,,,,,,,,,,,,,,,,,,,,,,,,,,,,,,,,,,,,,,,,0.005273499999020714,227.47384020000004,227.49730840000007,227.5675435999999,228.40309819999993,228.49661360000005,230.00190980000002,None,0,F,True,293.7686999998732,0.5112505999989025,1.4402330999989772,271,189040,189968,190239,Correct,230.00190980000002,230.20185229999993,,,,,,,,,,,,,,,,,,,,,,,,,,,,,,,,,,,,,,,,,,,657,29,M,Y,2022-10-25_18h18.22.999,Prime-Probe,2022.2.3,85.06974868697834,
Test,Visual_Stimuli/D_Down.png,Visual_Stimuli/T_Up.png,j,Incongruent,Incongruent,4,2,2,4,8,,,,,,,,,0,27,27,27,,,,,,,,,,,,,,,,,,,,,,,,,,,,,,,,,,,,,,,,,,,,,,,,,,,,,,,,,,,,,0.0040361999988363095,230.67260609999994,230.70781429999988,230.76640709999992,231.60154949999992,231.69542580000007,,None,0,J,True,352.3742999998376,0.5102310999989186,1.4391386999989209,333,192238,193166,193499,Correct,233.21243349999986,,,,,,,,,,,,,,,,,,,,,,,,,,,,,,,,,,,,,,,,,,,,657,29,M,Y,2022-10-25_18h18.22.999,Prime-Probe,2022.2.3,85.06974868697834,
Test,Visual_Stimuli/D_Left.png,Visual_Stimuli/T_Right.png,g,Incongruent,Incongruent,0,1,1,0,7,,,,,,,,,0,28,28,28,,,,,,,,,,,,,,,,,,,,,,,,,,,,,,,,,,,,,,,,,,,,,,,,,,,,,,,,,,,,,0.0033616999987771123,233.8713275,233.90639459999989,233.96509249999986,234.80025479999995,234.89414540000007,,None,0,G,True,352.3177999998097,0.5088221999988036,1.437951499998917,330,195436,196365,196695,Correct,236.41110529999992,,,,,,,,,,,,,,,,,,,,,,,,,,,,,,,,,,,,,,,,,,,,657,29,M,Y,2022-10-25_18h18.22.999,Prime-Probe,2022.2.3,85.06974868697834,
Test,Visual_Stimuli/D_Up.png,Visual_Stimuli/T_Down.png,n,Incongruent,Incongruent,2,4,4,2,10,,,,,,,,,0,29,29,29,,,,,,,,,,,,,,,,,,,,,,,,,,,,,,,,,,,,,,,,,,,,,,,,,,,,,,,,,,,,,0.0021753999988050055,237.0700081,237.10512189999986,237.16375649999986,237.9989825,238.0927752,,None,0,N,True,364.3260999999711,0.5076338999988366,1.4363668999988022,345,198634,199563,199908,Correct,239.60990719999995,,,,,,,,,,,,,,,,,,,,,,,,,,,,,,,,,,,,,,,,,,,,657,29,M,Y,2022-10-25_18h18.22.999,Prime-Probe,2022.2.3,85.06974868697834,
Test,Visual_Stimuli/D_Right.png,Visual_Stimuli/T_Left.png,f,Incongruent,Incongruent,1,0,0,1,6,,,,,,,,,0,30,30,30,,,,,,,,,,,,,,,,,,,,,,,,,,,,,,,,,,,,,,,,,,,,,,,,,,,,,,,,,,,,,0.0010199999987889896,240.26871289999985,240.3038262,240.36252709999985,241.19774200000006,241.29147319999993,242.80872699999986,None,0,F,True,234.95690000004288,0.5062481999987085,1.4351006999986566,211,201833,202763,202974,Correct,242.80872699999986,243.0085271999999,,,,,,,,,,,,,,,,,,,,,,,,,,,,,,,,,,,,,,,,,,,657,29,M,Y,2022-10-25_18h18.22.999,Prime-Probe,2022.2.3,85.06974868697834,
Test,Visual_Stimuli/D_Up.png,Visual_Stimuli/T_Up.png,j,Congruent,Incongruent,2,4,2,4,8,,,,,,,,,0,31,31,31,,,,,,,,,,,,,,,,,,,,,,,,,,,,,,,,,,,,,,,,,,,,,,,,,,,,,,,,,,,,,-0.00011560000120880431,243.4673926999999,243.50258069999995,243.56117100000006,244.40827709999985,244.50197149999985,246.00739599999997,None,0,J,True,329.43999999997686,0.5050174999987576,1.4338641999986521,308,205031,205962,206270,Correct,246.00739599999997,246.2072968,,,,,,,,,,,,,,,,,,,,,,,,,,,,,,,,,,,,,,,,,,,657,29,M,Y,2022-10-25_18h18.22.999,Prime-Probe,2022.2.3,85.06974868697834,
Test,Visual_Stimuli/D_Left.png,Visual_Stimuli/T_Right.png,g,Incongruent,Congruent,0,1,1,0,7,,,,,,,,,0,32,32,32,,,,,,,,,,,,,,,,,,,,,,,,,,,,,,,,,,,,,,,,,,,,,,,,,,,,,,,,,,,,,0.009498899998561683,246.66624619999993,246.70131379999998,246.7599163,247.60694639999997,247.70072219999997,249.2059916999999,None,0,G,True,352.62760000000526,0.5037592999985918,1.4443098999986432,335,208231,209172,209507,Correct,249.2059916999999,249.40589520000003,,,,,,,,,,,,,,,,,,,,,,,,,,,,,,,,,,,,,,,,,,,657,29,M,Y,2022-10-25_18h18.22.999,Prime-Probe,2022.2.3,85.06974868697834,
Test,Visual_Stimuli/D_Down.png,Visual_Stimuli/T_Up.png,j,Incongruent,Incongruent,4,2,2,4,8,,,,,,,,,0,33,33,33,,,,,,,,,,,,,,,,,,,,,,,,,,,,,,,,,,,,,,,,,,,,,,,,,,,,,,,,,,,,,0.008074499998656393,249.8650247999999,249.9001435,249.95869990000006,250.80569739999987,250.8993900999999,252.40473350000002,None,0,J,True,317.36750000004577,0.5028129999986959,1.4430342999985442,300,211429,212370,212670,Correct,252.40473350000002,252.60462659999985,,,,,,,,,,,,,,,,,,,,,,,,,,,,,,,,,,,,,,,,,,,657,29,M,Y,2022-10-25_18h18.22.999,Prime-Probe,2022.2.3,85.06974868697834,
Test,Visual_Stimuli/D_Left.png,Visual_Stimuli/T_Left.png,f,Congruent,Incongruent,0,1,0,1,6,,,,,,,,,0,34,34,34,,,,,,,,,,,,,,,,,,,,,,,,,,,,,,,,,,,,,,,,,,,,,,,,,,,,,,,,,,,,,0.00680889999853207,253.0753909,253.09881329999985,253.16904079999995,254.00443059999998,254.09826670000007,255.60341319999998,None,0,F,True,258.40759999982765,0.5013070999984848,1.4419030999986262,234,214628,215568,215802,Correct,255.60341319999998,255.8033450999999,,,,,,,,,,,,,,,,,,,,,,,,,,,,,,,,,,,,,,,,,,,657,29,M,Y,2022-10-25_18h18.22.999,Prime-Probe,2022.2.3,85.06974868697834,
Test,Visual_Stimuli/D_Up.png,Visual_Stimuli/T_Up.png,j,Congruent,Congruent,2,4,2,4,8,,,,,,,,,0,35,35,35,,,,,,,,,,,,,,,,,,,,,,,,,,,,,,,,,,,,,,,,,,,,,,,,,,,,,,,,,,,,,0.005524499998500687,256.27408379999997,256.2975168999999,256.3678427,257.20313239999996,257.2968570999999,258.80214150000006,None,0,J,True,305.4968999999801,0.5113548999984232,1.440501099998528,288,217838,218766,219054,Correct,258.80214150000006,259.00205959999994,,,,,,,,,,,,,,,,,,,,,,,,,,,,,,,,,,,,,,,,,,,657,29,M,Y,2022-10-25_18h18.22.999,Prime-Probe,2022.2.3,85.06974868697834,
Test,Visual_Stimuli/D_Left.png,Visual_Stimuli/T_Right.png,g,Incongruent,Congruent,0,1,1,0,7,,,,,,,,,0,36,36,36,,,,,,,,,,,,,,,,,,,,,,,,,,,,,,,,,,,,,,,,,,,,,,,,,,,,,,,,,,,,,0.004238999998506188,259.4728424,259.50806910000006,259.5665056,260.40180609999993,260.49568780000004,,None,0,G,True,376.0357999999542,0.5105403999984901,1.4392742999984875,352,221036,221967,222319,Correct,262.0128247,,,,,,,,,,,,,,,,,,,,,,,,,,,,,,,,,,,,,,,,,,,,657,29,M,Y,2022-10-25_18h18.22.999,Prime-Probe,2022.2.3,85.06974868697834,
Test,Visual_Stimuli/D_Up.png,Visual_Stimuli/T_Down.png,n,Incongruent,Incongruent,2,4,4,2,10,,,,,,,,,0,37,37,37,,,,,,,,,,,,,,,,,,,,,,,,,,,,,,,,,,,,,,,,,,,,,,,,,,,,,,,,,,,,,0.0038012999984857743,262.6714669999999,262.70678610000004,262.76531479999994,263.60054939999986,263.6946025,,None,0,N,True,387.77120000008836,0.5092535999983738,1.4382411999984015,360,224234,225165,225525,Correct,265.21132979999993,,,,,,,,,,,,,,,,,,,,,,,,,,,,,,,,,,,,,,,,,,,,657,29,M,Y,2022-10-25_18h18.22.999,Prime-Probe,2022.2.3,85.06974868697834,
Test,Visual_Stimuli/D_Left.png,Visual_Stimuli/T_Right.png,g,Incongruent,Incongruent,0,1,1,0,7,,,,,,,,,0,38,38,38,,,,,,,,,,,,,,,,,,,,,,,,,,,,,,,,,,,,,,,,,,,,,,,,,,,,,,,,,,,,,0.002289799998379749,265.8702665999999,265.9053626,265.96408270000006,266.7992569999999,266.8930224999999,,None,0,G,True,340.7803000000058,0.5078462999983913,1.4368449999983568,317,227435,228363,228680,Correct,268.41014889999997,,,,,,,,,,,,,,,,,,,,,,,,,,,,,,,,,,,,,,,,,,,,657,29,M,Y,2022-10-25_18h18.22.999,Prime-Probe,2022.2.3,85.06974868697834,
Test,Visual_Stimuli/D_Down.png,Visual_Stimuli/T_Down.png,n,Congruent,Incongruent,4,2,4,2,10,,,,,,,,,0,39,39,39,,,,,,,,,,,,,,,,,,,,,,,,,,,,,,,,,,,,,,,,,,,,,,,,,,,,,,,,,,,,,0.0011949999982334703,269.06891759999985,269.1042574999999,269.16267760000005,269.99784520000003,270.091813,271.60882960000004,None,0,N,True,317.32679999981883,0.5068400999982714,1.4353634999984024,301,230633,231561,231862,Correct,271.60882960000004,271.80879060000007,,,,,,,,,,,,,,,,,,,,,,,,,,,,,,,,,,,,,,,,,,,657,29,M,Y,2022-10-25_18h18.22.999,Prime-Probe,2022.2.3,85.06974868697834,
Test,Visual_Stimuli/D_Left.png,Visual_Stimuli/T_Left.png,f,Congruent,Congruent,0,1,0,1,6,,,,,,,,,0,40,40,40,,,,,,,,,,,,,,,,,,,,,,,,,,,,,,,,,,,,,,,,,,,,,,,,,,,,,,,,,,,,,1.2299998388698441e-05,272.26765810000006,272.30289089999997,272.36140520000004,273.2084439,273.3022189999999,274.80743630000006,None,0,F,True,305.53820000000087,0.5054016999981741,1.4340549999983523,278,233831,234760,235038,Correct,274.80743630000006,275.00742420000006,,,,,,,,,,,,,,,,,,,,,,,,,,,,,,,,,,,,,,,,,,,657,29,M,Y,2022-10-25_18h18.22.999,Prime-Probe,2022.2.3,85.06974868697834,
Test,Visual_Stimuli/D_Down.png,Visual_Stimuli/T_Down.png,n,Congruent,Congruent,4,2,4,2,10,,,,,,,,,0,41,41,41,,,,,,,,,,,,,,,,,,,,,,,,,,,,,,,,,,,,,,,,,,,,,,,,,,,,,,,,,,,,,0.009603899998182897,275.46639789999995,275.5015487999999,275.5603323,276.40741839999987,276.5009163,278.00631780000003,None,0,N,True,364.26219999998466,0.5040523999982724,1.4445748999983152,346,237029,237970,238316,Correct,278.00631780000003,278.20617949999996,,,,,,,,,,,,,,,,,,,,,,,,,,,,,,,,,,,,,,,,,,,657,29,M,Y,2022-10-25_18h18.22.999,Prime-Probe,2022.2.3,85.06974868697834,
Test,Visual_Stimuli/D_Right.png,Visual_Stimuli/T_Right.png,g,Congruent,Congruent,1,0,1,0,7,,,,,,,,,0,42,42,42,,,,,,,,,,,,,,,,,,,,,,,,,,,,,,,,,,,,,,,,,,,,,,,,,,,,,,,,,,,,,0.008395299998255723,278.6649752000001,278.70024769999986,278.75881860000004,279.60585289999995,279.6996096999999,281.2049717,None,0,G,True,364.520500000026,0.5026871999982632,1.4432032999982312,343,240228,241168,241511,Correct,281.2049717,281.40484530000003,,,,,,,,,,,,,,,,,,,,,,,,,,,,,,,,,,,,,,,,,,,657,29,M,Y,2022-10-25_18h18.22.999,Prime-Probe,2022.2.3,85.06974868697834,
Test,Visual_Stimuli/D_Up.png,Visual_Stimuli/T_Down.png,n,Incongruent,Congruent,2,4,4,2,10,,,,,,,,,0,43,43,43,,,,,,,,,,,,,,,,,,,,,,,,,,,,,,,,,,,,,,,,,,,,,,,,,,,,,,,,,,,,,0.0070247999981347675,281.87576450000006,281.8989982999999,281.96939580000003,282.80475120000006,282.898336,284.4036288,None,0,N,True,340.6930999999531,0.5014197999980752,1.4422189999982038,322,243428,244368,244690,Correct,284.4036288,284.60360059999994,,,,,,,,,,,,,,,,,,,,,,,,,,,,,,,,,,,,,,,,,,,657,29,M,Y,2022-10-25_18h18.22.999,Prime-Probe,2022.2.3,85.06974868697834,
Test,Visual_Stimuli/D_Right.png,Visual_Stimuli/T_Left.png,f,Incongruent,Incongruent,1,0,0,1,6,,,,,,,,,0,44,44,44,,,,,,,,,,,,,,,,,,,,,,,,,,,,,,,,,,,,,,,,,,,,,,,,,,,,,,,,,,,,,0.005821299998160612,285.07428430000004,285.09771550000005,285.16810009999995,286.00374139999985,286.09706189999997,287.60240339999996,None,0,F,True,235.05920000002334,0.5001793999981601,1.4406503999980487,215,246626,247566,247781,Correct,287.60240339999996,287.80225159999986,,,,,,,,,,,,,,,,,,,,,,,,,,,,,,,,,,,,,,,,,,,657,29,M,Y,2022-10-25_18h18.22.999,Prime-Probe,2022.2.3,85.06974868697834,
Test,Visual_Stimuli/D_Down.png,Visual_Stimuli/T_Down.png,n,Congruent,Incongruent,4,2,4,2,10,,,,,,,,,0,45,45,45,,,,,,,,,,,,,,,,,,,,,,,,,,,,,,,,,,,,,,,,,,,,,,,,,,,,,,,,,,,,,0.0044314999979633285,288.27291220000006,288.3083323999999,288.36690309999994,289.20198389999996,289.2958796999999,,None,0,N,True,352.5265999999192,0.510803899998109,1.4394270999980563,326,249836,250765,251091,Correct,290.81288829999994,,,,,,,,,,,,,,,,,,,,,,,,,,,,,,,,,,,,,,,,,,,,657,29,M,Y,2022-10-25_18h18.22.999,Prime-Probe,2022.2.3,85.06974868697834,
Test,Visual_Stimuli/D_Right.png,Visual_Stimuli/T_Left.png,f,Incongruent,Congruent,1,0,0,1,6,,,,,,,,,0,46,46,46,,,,,,,,,,,,,,,,,,,,,,,,,,,,,,,,,,,,,,,,,,,,,,,,,,,,,,,,,,,,,0.003795899998067398,291.4716658,291.5069194,291.56543110000007,292.4007414,292.4946270999999,,None,0,F,True,305.50449999986995,0.5094541999981175,1.4381793999980346,278,253034,253963,254241,Correct,294.0115372,,,,,,,,,,,,,,,,,,,,,,,,,,,,,,,,,,,,,,,,,,,,657,29,M,Y,2022-10-25_18h18.22.999,Prime-Probe,2022.2.3,85.06974868697834,
Test,Visual_Stimuli/D_Up.png,Visual_Stimuli/T_Down.png,n,Incongruent,Incongruent,2,4,4,2,10,,,,,,,,,0,47,47,47,,,,,,,,,,,,,,,,,,,,,,,,,,,,,,,,,,,,,,,,,,,,,,,,,,,,,,,,,,,,,0.002721899998050503,294.67048249999993,294.7057305999999,294.7642787,295.59959449999997,295.69322420000003,,None,0,N,True,317.1922999999879,0.5083131999979287,1.4369290999979967,299,256233,257161,257460,Correct,297.21024080000007,,,,,,,,,,,,,,,,,,,,,,,,,,,,,,,,,,,,,,,,,,,,657,29,M,Y,2022-10-25_18h18.22.999,Prime-Probe,2022.2.3,85.06974868697834,
Test,Visual_Stimuli/D_Left.png,Visual_Stimuli/T_Left.png,f,Congruent,Incongruent,0,1,0,1,6,,,,,,,,,0,48,48,48,,,,,,,,,,,,,,,,,,,,,,,,,,,,,,,,,,,,,,,,,,,,,,,,,,,,,,,,,,,,,0.0012006999979803368,297.8690683,297.9043658999999,297.9629138,298.79819640000005,298.8920667,300.4092476999999,None,0,F,True,329.02899999999136,0.5068676999978834,1.435586999997895,302,259431,260360,260662,Correct,300.4092476999999,300.60893209999995,,,,,,,,,,,,,,,,,,,,,,,,,,,,,,,,,,,,,,,,,,,657,29,M,Y,2022-10-25_18h18.22.999,Prime-Probe,2022.2.3,85.06974868697834,
Test,Visual_Stimuli/D_Up.png,Visual_Stimuli/T_Up.png,j,Congruent,Congruent,2,4,2,4,8,,,,,,,,,0,49,49,49,,,,,,,,,,,,,,,,,,,,,,,,,,,,,,,,,,,,,,,,,,,,,,,,,,,,,,,,,,,,,0.00038359999780368526,301.06789690000005,301.10320079999997,301.1617991999999,302.0086174999999,302.1026353,303.60773489999997,None,0,J,True,364.36430000003384,0.5057794999979706,1.4342749999977968,345,262629,263560,263905,Correct,303.60773489999997,303.8077621,,,,,,,,,,,,,,,,,,,,,,,,,,,,,,,,,,,,,,,,,,,657,29,M,Y,2022-10-25_18h18.22.999,Prime-Probe,2022.2.3,85.06974868697834,
Test,Visual_Stimuli/D_Right.png,Visual_Stimuli/T_Right.png,g,Congruent,Congruent,1,0,1,0,7,,,,,,,,,0,50,50,50,,,,,,,,,,,,,,,,,,,,,,,,,,,,,,,,,,,,,,,,,,,,,,,,,,,,,,,,,,,,,-0.0008610000022599706,304.2667156,304.30177189999995,304.3603613,305.20745250000004,305.30119539999987,306.80652940000004,None,0,G,True,364.21119999999974,0.5042873999977928,1.4331231999979082,339,265827,266757,267096,Correct,306.80652940000004,307.00636510000004,,,,,,,,,,,,,,,,,,,,,,,,,,,,,,,,,,,,,,,,,,,657,29,M,Y,2022-10-25_18h18.22.999,Prime-Probe,2022.2.3,85.06974868697834,
Test,Visual_Stimuli/D_Down.png,Visual_Stimuli/T_Up.png,j,Incongruent,Congruent,4,2,2,4,8,,,,,,,,,0,51,51,51,,,,,,,,,,,,,,,,,,,,,,,,,,,,,,,,,,,,,,,,,,,,,,,,,,,,,,,,,,,,,0.008549199997787582,307.4653137999999,307.50046700000007,307.5592815,308.40611319999994,308.49991439999985,310.00516249999987,None,0,J,True,387.7016999999796,0.5029766999978165,1.443604799997729,363,269028,269968,270331,Correct,310.00516249999987,310.2051283999999,,,,,,,,,,,,,,,,,,,,,,,,,,,,,,,,,,,,,,,,,,,657,29,M,Y,2022-10-25_18h18.22.999,Prime-Probe,2022.2.3,85.06974868697834,
Test,Visual_Stimuli/D_Left.png,Visual_Stimuli/T_Left.png,f,Congruent,Incongruent,0,1,0,1,6,,,,,,,,,0,52,52,52,,,,,,,,,,,,,,,,,,,,,,,,,,,,,,,,,,,,,,,,,,,,,,,,,,,,,,,,,,,,,0.0073074999977507105,310.6641009,310.69919149999987,310.75786730000004,311.6051103,311.69848290000004,313.20394880000003,None,0,F,True,223.78589999993892,0.5017228999977306,1.4422011999977258,201,272226,273167,273368,Correct,313.20394880000003,313.40377809999995,,,,,,,,,,,,,,,,,,,,,,,,,,,,,,,,,,,,,,,,,,,657,29,M,Y,2022-10-25_18h18.22.999,Prime-Probe,2022.2.3,85.06974868697834,
Test,Visual_Stimuli/D_Up.png,Visual_Stimuli/T_Down.png,n,Incongruent,Congruent,2,4,4,2,10,,,,,,,,,0,53,53,53,,,,,,,,,,,,,,,,,,,,,,,,,,,,,,,,,,,,,,,,,,,,,,,,,,,,,,,,,,,,,0.00599439999768947,313.87450020000006,313.89789429999996,313.9682748,314.8035832999999,314.8975831,316.4025185999999,None,0,N,True,328.99589999988166,0.5003915999977835,1.4409964999977092,312,275424,276365,276677,Correct,316.4025185999999,316.6025179999999,,,,,,,,,,,,,,,,,,,,,,,,,,,,,,,,,,,,,,,,,,,657,29,M,Y,2022-10-25_18h18.22.999,Prime-Probe,2022.2.3,85.06974868697834,
Test,Visual_Stimuli/D_Left.png,Visual_Stimuli/T_Left.png,f,Congruent,Incongruent,0,1,0,1,6,,,,,,,,,0,54,54,54,,,,,,,,,,,,,,,,,,,,,,,,,,,,,,,,,,,,,,,,,,,,,,,,,,,,,,,,,,,,,0.004717699997627278,317.07329819999995,317.10842120000007,317.1670523999999,318.00220509999986,318.0960198,,None,0,F,True,234.9380000000565,0.5108995999976287,1.4395812999975988,211,278634,279563,279774,Correct,319.6131223,,,,,,,,,,,,,,,,,,,,,,,,,,,,,,,,,,,,,,,,,,,,657,29,M,Y,2022-10-25_18h18.22.999,Prime-Probe,2022.2.3,85.06974868697834,
Test,Visual_Stimuli/D_Down.png,Visual_Stimuli/T_Up.png,j,Incongruent,Congruent,4,2,2,4,8,,,,,,,,,0,55,55,55,,,,,,,,,,,,,,,,,,,,,,,,,,,,,,,,,,,,,,,,,,,,,,,,,,,,,,,,,,,,,0.003918699997484509,320.2719546999999,320.30718679999995,320.3656639000001,321.20098759999996,321.2947340999999,,None,0,J,True,328.9772000000539,0.5096546999975544,1.4384077999975489,306,281833,282762,283068,Correct,322.8118391999999,,,,,,,,,,,,,,,,,,,,,,,,,,,,,,,,,,,,,,,,,,,,657,29,M,Y,2022-10-25_18h18.22.999,Prime-Probe,2022.2.3,85.06974868697834,
Test,Visual_Stimuli/D_Right.png,Visual_Stimuli/T_Right.png,g,Congruent,Incongruent,1,0,1,0,7,,,,,,,,,0,56,56,56,,,,,,,,,,,,,,,,,,,,,,,,,,,,,,,,,,,,,,,,,,,,,,,,,,,,,,,,,,,,,0.00290779999750157,323.47070099999996,323.50600280000003,323.56439750000004,324.39986210000006,324.4934911999999,,None,0,G,True,376.151899999968,0.5085752999975739,1.4370628999974997,350,285031,285960,286310,Correct,326.0111016999999,,,,,,,,,,,,,,,,,,,,,,,,,,,,,,,,,,,,,,,,,,,,657,29,M,Y,2022-10-25_18h18.22.999,Prime-Probe,2022.2.3,85.06974868697834,
Test,Visual_Stimuli/D_Up.png,Visual_Stimuli/T_Down.png,n,Incongruent,Congruent,2,4,4,2,10,,,,,,,,,0,57,57,57,,,,,,,,,,,,,,,,,,,,,,,,,,,,,,,,,,,,,,,,,,,,,,,,,,,,,,,,,,,,,0.0015676999973948114,326.66938630000004,326.70475999999985,326.7631681999999,327.5984134,327.69236290000003,329.20922530000007,None,0,N,True,352.6114999999663,0.5072241999976086,1.4357987999974284,324,288229,289160,289484,Correct,329.20922530000007,329.40909039999997,,,,,,,,,,,,,,,,,,,,,,,,,,,,,,,,,,,,,,,,,,,657,29,M,Y,2022-10-25_18h18.22.999,Prime-Probe,2022.2.3,85.06974868697834,
Test,Visual_Stimuli/D_Left.png,Visual_Stimuli/T_Left.png,f,Congruent,Incongruent,0,1,0,1,6,,,,,,,,,0,58,58,58,,,,,,,,,,,,,,,,,,,,,,,,,,,,,,,,,,,,,,,,,,,,,,,,,,,,,,,,,,,,,0.0005138999974860781,329.86809859999994,329.90332809999995,329.96215129999996,330.8089786999999,330.90281759999993,332.40867030000004,None,0,F,True,258.58210000001236,0.5057386999974369,1.4345094999973753,237,291428,292357,292594,Correct,332.40867030000004,332.6078158999999,,,,,,,,,,,,,,,,,,,,,,,,,,,,,,,,,,,,,,,,,,,657,29,M,Y,2022-10-25_18h18.22.999,Prime-Probe,2022.2.3,85.06974868697834,
Test,Visual_Stimuli/D_Up.png,Visual_Stimuli/T_Up.png,j,Congruent,Congruent,2,4,2,4,8,,,,,,,,,0,59,59,59,,,,,,,,,,,,,,,,,,,,,,,,,,,,,,,,,,,,,,,,,,,,,,,,,,,,,,,,,,,,,-0.000312700002496058,333.0668719,333.1020486,333.16060790000006,334.0076491,334.1014723999999,335.6068375,None,0,J,True,340.75370000005023,0.504533899997341,1.4332909999973253,315,294628,295556,295871,Correct,335.6068375,335.80688480000003,,,,,,,,,,,,,,,,,,,,,,,,,,,,,,,,,,,,,,,,,,,657,29,M,Y,2022-10-25_18h18.22.999,Prime-Probe,2022.2.3,85.06974868697834,
Test,Visual_Stimuli/D_Right.png,Visual_Stimuli/T_Left.png,f,Incongruent,Congruent,1,0,0,1,6,,,,,,,,,0,60,60,60,,,,,,,,,,,,,,,,,,,,,,,,,,,,,,,,,,,,,,,,,,,,,,,,,,,,,,,,,,,,,0.009065499997404913,336.2655778999999,336.3007562,336.35935040000004,337.2063435,337.30007649999993,338.8053909,None,0,F,True,282.09900000001653,0.5033203999973921,1.4437061999974503,254,297826,298767,299021,Correct,338.8053909,339.00529559999995,,,,,,,,,,,,,,,,,,,,,,,,,,,,,,,,,,,,,,,,,,,657,29,M,Y,2022-10-25_18h18.22.999,Prime-Probe,2022.2.3,85.06974868697834,
Test,Visual_Stimuli/D_Down.png,Visual_Stimuli/T_Down.png,n,Congruent,Incongruent,4,2,4,2,10,,,,,,,,,0,61,61,61,,,,,,,,,,,,,,,,,,,,,,,,,,,,,,,,,,,,,,,,,,,,,,,,,,,,,,,,,,,,,0.007497499997271007,339.4643747,339.49948599999993,339.5580448999999,340.40516849999995,340.49882639999987,342.00416530000007,None,0,N,True,293.8877000001412,0.5019964999974036,1.4424246999972183,274,301025,301965,302239,Correct,342.00416530000007,342.20404099999996,,,,,,,,,,,,,,,,,,,,,,,,,,,,,,,,,,,,,,,,,,,657,29,M,Y,2022-10-25_18h18.22.999,Prime-Probe,2022.2.3,85.06974868697834,
Test,Visual_Stimuli/D_Right.png,Visual_Stimuli/T_Right.png,g,Congruent,Congruent,1,0,1,0,7,,,,,,,,,0,62,62,62,,,,,,,,,,,,,,,,,,,,,,,,,,,,,,,,,,,,,,,,,,,,,,,,,,,,,,,,,,,,,0.006242899997232598,342.67472870000006,342.6981724,342.76857819999987,343.60376109999993,343.69765459999985,345.20279830000004,None,0,G,True,340.70900000006077,0.5006860999972105,1.44126409999717,324,304223,305163,305487,Correct,345.20279830000004,345.4027687999999,,,,,,,,,,,,,,,,,,,,,,,,,,,,,,,,,,,,,,,,,,,657,29,M,Y,2022-10-25_18h18.22.999,Prime-Probe,2022.2.3,85.06974868697834,
Test,Visual_Stimuli/D_Down.png,Visual_Stimuli/T_Down.png,n,Congruent,Congruent,4,2,4,2,10,,,,,,,,,0,63,63,63,,,,,,,,,,,,,,,,,,,,,,,,,,,,,,,,,,,,,,,,,,,,,,,,,,,,,,,,,,,,,0.00499069999727908,345.87347969999996,345.89690559999985,345.9672493999999,346.80258149999986,346.89630769999985,348.4016119999999,None,0,N,True,364.4567999999708,0.5108451999972203,1.4400293999972291,342,307433,308362,308704,Correct,348.4016119999999,348.60145139999986,,,,,,,,,,,,,,,,,,,,,,,,,,,,,,,,,,,,,,,,,,,657,29,M,Y,2022-10-25_18h18.22.999,Prime-Probe,2022.2.3,85.06974868697834,
Test,Visual_Stimuli/D_Left.png,Visual_Stimuli/T_Right.png,g,Incongruent,Congruent,0,1,1,0,7,,,,,,,,,0,64,64,64,,,,,,,,,,,,,,,,,,,,,,,,,,,,,,,,,,,,,,,,,,,,,,,,,,,,,,,,,,,,,0.00363279999714905,349.07232909999993,349.10746670000003,349.1660468,350.0012813999999,350.0950169,,None,0,G,True,411.07270000020435,0.5099378999971123,1.4388061999970887,385,310631,311562,311947,Correct,351.61207220000006,,,,,,,,,,,,,,,,,,,,,,,,,,,,,,,,,,,,,,,,,,,,657,29,M,Y,2022-10-25_18h18.22.999,Prime-Probe,2022.2.3,85.06974868697834,
Test,Visual_Stimuli/D_Up.png,Visual_Stimuli/T_Up.png,j,Congruent,Incongruent,2,4,2,4,8,,,,,,,,,0,65,65,65,,,,,,,,,,,,,,,,,,,,,,,,,,,,,,,,,,,,,,,,,,,,,,,,,,,,,,,,,,,,,0.002946099997188867,352.27089090000004,352.3062912999999,352.36467189999985,353.19992179999986,353.29370689999996,,None,0,J,True,282.040699999925,0.5087999999971089,1.4372720999972444,261,313830,314760,315021,Correct,354.8110632999999,,,,,,,,,,,,,,,,,,,,,,,,,,,,,,,,,,,,,,,,,,,,657,29,M,Y,2022-10-25_18h18.22.999,Prime-Probe,2022.2.3,85.06974868697834,
Test,Visual_Stimuli/D_Right.png,Visual_Stimuli/T_Right.png,g,Congruent,Congruent,1,0,1,0,7,,,,,,,,,0,66,66,66,,,,,,,,,,,,,,,,,,,,,,,,,,,,,,,,,,,,,,,,,,,,,,,,,,,,,,,,,,,,,0.001739199997018659,355.4696896999999,355.50492310000004,355.56347230000006,356.3987327,356.4925094,358.0095669,None,0,G,True,328.9925999999923,0.5073984999971799,1.436078299997007,311,317030,317958,318269,Correct,358.0095669,358.2093947999999,,,,,,,,,,,,,,,,,,,,,,,,,,,,,,,,,,,,,,,,,,,657,29,M,Y,2022-10-25_18h18.22.999,Prime-Probe,2022.2.3,85.06974868697834,
Test,Visual_Stimuli/D_Down.png,Visual_Stimuli/T_Down.png,n,Congruent,Congruent,4,2,4,2,10,,,,,,,,,0,67,67,67,,,,,,,,,,,,,,,,,,,,,,,,,,,,,,,,,,,,,,,,,,,,,,,,,,,,,,,,,,,,,0.0008265999970262783,358.66832899999986,358.7036940999999,358.76204919999986,359.597391,359.69169579999993,361.2082814999999,None,0,N,True,317.35279999998056,0.5063247999969462,1.4347291999970366,299,320228,321156,321455,Correct,361.2082814999999,361.40811659999986,,,,,,,,,,,,,,,,,,,,,,,,,,,,,,,,,,,,,,,,,,,657,29,M,Y,2022-10-25_18h18.22.999,Prime-Probe,2022.2.3,85.06974868697834,
Test,Visual_Stimuli/D_Right.png,Visual_Stimuli/T_Right.png,g,Congruent,Congruent,1,0,1,0,7,,,,,,,,,0,68,68,68,,,,,,,,,,,,,,,,,,,,,,,,,,,,,,,,,,,,,,,,,,,,,,,,,,,,,,,,,,,,,-0.0004642000030798954,361.8671798999999,361.902337,361.9608860000001,362.8080066,362.90166539999996,364.4068881999999,None,0,G,True,281.91100000003644,0.5047544999970341,1.433554799996955,264,323427,324354,324618,Correct,364.4068881999999,364.60684549999996,,,,,,,,,,,,,,,,,,,,,,,,,,,,,,,,,,,,,,,,,,,657,29,M,Y,2022-10-25_18h18.22.999,Prime-Probe,2022.2.3,85.06974868697834,
Test,Visual_Stimuli/D_Down.png,Visual_Stimuli/T_Down.png,n,Congruent,Congruent,4,2,4,2,10,,,,,,,,,0,69,69,69,,,,,,,,,,,,,,,,,,,,,,,,,,,,,,,,,,,,,,,,,,,,,,,,,,,,,,,,,,,,,0.009026399996855616,365.0659143999999,365.10106670000005,365.1596084999999,366.0067377999999,366.10031789999994,367.60629419999987,None,0,N,True,317.21410000000105,0.5035339999969892,1.4440183999970486,297,326625,327565,327862,Correct,367.60629419999987,367.80554860000007,,,,,,,,,,,,,,,,,,,,,,,,,,,,,,,,,,,,,,,,,,,657,29,M,Y,2022-10-25_18h18.22.999,Prime-Probe,2022.2.3,85.06974868697834,
Test,Visual_Stimuli/D_Left.png,Visual_Stimuli/T_Right.png,g,Incongruent,Congruent,0,1,1,0,7,,,,,,,,,0,70,70,70,,,,,,,,,,,,,,,,,,,,,,,,,,,,,,,,,,,,,,,,,,,,,,,,,,,,,,,,,,,,,0.007730699996955082,368.2645769999999,368.2998803999999,368.3582873999999,369.2052905999999,369.2991179999999,370.8043092999999,None,0,G,True,423.0784000001222,0.5023557999968489,1.4427457999968283,404,329823,330764,331168,Correct,370.8043092999999,371.00426449999986,,,,,,,,,,,,,,,,,,,,,,,,,,,,,,,,,,,,,,,,,,,657,29,M,Y,2022-10-25_18h18.22.999,Prime-Probe,2022.2.3,85.06974868697834,
Test,Visual_Stimuli/D_Up.png,Visual_Stimuli/T_Up.png,j,Congruent,Incongruent,2,4,2,4,8,,,,,,,,,0,71,71,71,,,,,,,,,,,,,,,,,,,,,,,,,,,,,,,,,,,,,,,,,,,,,,,,,,,,,,,,,,,,,0.006444499996860031,371.47499419999986,371.49856,371.5687292,372.40406729999995,372.49779569999987,374.0030248999999,None,0,J,True,458.31090000001495,0.5011723999969036,1.4414399999968737,439,333022,333962,334401,Correct,374.0030248999999,374.30845479999994,,,,,,,,,,,,,,,,,,,,,,,,,,,,,,,,,,,,,,,,,,,657,29,M,Y,2022-10-25_18h18.22.999,Prime-Probe,2022.2.3,85.06974868697834,
,,,,,,,,,,,,,,,,,,,,,,,,,,,,,,,,,,,,,,,,,,,,,,,,,,,,,,,,,,,,,,,,,,,,,,,,,,,,,,,,,,,,,,,,,,,,,,,,,,,,,,,,,,,376.03698269999995,376.03698269999995,None,,,374.30845479999994,374.30845479999994,,,,,,,,,,,,,,,,,,,,,,,,,,,,,,,,,657,29,M,Y,2022-10-25_18h18.22.999,Prime-Probe,2022.2.3,85.06974868697834,
Test,Visual_Stimuli/D_Right.png,Visual_Stimuli/T_Right.png,g,Congruent,None,1,0,1,0,7,,,,,,,,,,,,,0,0,0,0,,,,,,,,,,,,,,,,,,,,,,,,,,,,,,,,,,,,,,,,,,,,,,,,,,,,,376.03698269999995,377.8368155999999,377.8368155999999,378.0373726,0.0008763999999246153,378.5075211999999,378.54264809999995,378.60136169999987,379.4364800000001,379.5303047,,None,0,G,True,282.0478000001003,0.5090327000000343,1.4378217999999379,259,340066,340993,341252,Correct,381.04733379999993,,,,,,,,,,,,,,,,,,,,,,,,,,,,,,,,,,,,,,,,,,,,657,29,M,Y,2022-10-25_18h18.22.999,Prime-Probe,2022.2.3,85.06974868697834,
Test,Visual_Stimuli/D_Down.png,Visual_Stimuli/T_Up.png,j,Incongruent,Congruent,4,2,2,4,8,,,,,,,,,,,,,0,1,1,1,,,,,,,,,,,,,,,,,,,,,,,,,,,,,,,,,,,,,,,,,,,,,,,,,,,,,,,,,0.0021695999998883053,381.7062741,381.74135479999995,381.79994399999987,382.63529790000007,382.7291261999999,,None,0,J,True,376.0314000001017,0.5076896999999008,1.4364935999999489,351,343264,344194,344545,Correct,384.2460601,,,,,,,,,,,,,,,,,,,,,,,,,,,,,,,,,,,,,,,,,,,,657,29,M,Y,2022-10-25_18h18.22.999,Prime-Probe,2022.2.3,85.06974868697834,
Test,Visual_Stimuli/D_Right.png,Visual_Stimuli/T_Right.png,g,Congruent,Incongruent,1,0,1,0,7,,,,,,,,,,,,,0,2,2,2,,,,,,,,,,,,,,,,,,,,,,,,,,,,,,,,,,,,,,,,,,,,,,,,,,,,,,,,,0.0009900000000016007,384.90497890000006,384.9401370999999,384.99865109999996,385.8339504999999,385.9276783,387.4447269,None,0,G,True,376.090799999929,0.5065546999999242,1.435232699999915,352,346462,347392,347744,Correct,387.4447269,387.6447693,,,,,,,,,,,,,,,,,,,,,,,,,,,,,,,,,,,,,,,,,,,657,29,M,Y,2022-10-25_18h18.22.999,Prime-Probe,2022.2.3,85.06974868697834,
Test,Visual_Stimuli/D_Down.png,Visual_Stimuli/T_Down.png,n,Congruent,Congruent,4,2,4,2,10,,,,,,,,,,,,,0,3,3,3,,,,,,,,,,,,,,,,,,,,,,,,,,,,,,,,,,,,,,,,,,,,,,,,,,,,,,,,,6.8999997893115506e-06,388.1036428,388.13881820000006,388.1975152,389.0445987999999,389.1381552999999,390.64342540000007,None,0,N,True,364.3084000000272,0.505239599999868,1.433974699999908,337,349663,350590,350927,Correct,390.64342540000007,390.8433671,,,,,,,,,,,,,,,,,,,,,,,,,,,,,,,,,,,,,,,,,,,657,29,M,Y,2022-10-25_18h18.22.999,Prime-Probe,2022.2.3,85.06974868697834,
Test,Visual_Stimuli/D_Left.png,Visual_Stimuli/T_Left.png,f,Congruent,Congruent,0,1,0,1,6,,,,,,,,,,,,,0,4,4,4,,,,,,,,,,,,,,,,,,,,,,,,,,,,,,,,,,,,,,,,,,,,,,,,,,,,,,,,,0.009573599999839644,391.30231979999985,391.3374730999999,391.3960975,392.24307039999985,392.3368822,393.8422106999999,None,0,F,True,223.15759999992224,0.5037852999998904,1.4444619999999304,202,352861,353801,354003,Correct,393.8422106999999,394.042007,,,,,,,,,,,,,,,,,,,,,,,,,,,,,,,,,,,,,,,,,,,657,29,M,Y,2022-10-25_18h18.22.999,Prime-Probe,2022.2.3,85.06974868697834,
Test,Visual_Stimuli/D_Down.png,Visual_Stimuli/T_Up.png,j,Incongruent,Congruent,4,2,2,4,8,,,,,,,,,,,,,0,5,5,5,,,,,,,,,,,,,,,,,,,,,,,,,,,,,,,,,,,,,,,,,,,,,,,,,,,,,,,,,0.008094599999822094,394.50111419999985,394.53637559999993,394.5948294,395.44192509999993,395.53555400000005,397.0409559,None,0,J,True,293.73050000003786,0.5029006999998273,1.4431384999998045,268,356058,357000,357268,Correct,397.0409559,397.2408393999999,,,,,,,,,,,,,,,,,,,,,,,,,,,,,,,,,,,,,,,,,,,657,29,M,Y,2022-10-25_18h18.22.999,Prime-Probe,2022.2.3,85.06974868697834,
Test,Visual_Stimuli/D_Right.png,Visual_Stimuli/T_Right.png,g,Congruent,Incongruent,1,0,1,0,7,,,,,,,,,,,,,0,6,6,6,,,,,,,,,,,,,,,,,,,,,,,,,,,,,,,,,,,,,,,,,,,,,,,,,,,,,,,,,0.006941299999652983,397.71156599999995,397.73501379999993,397.80541029999995,398.6406032,398.73433479999994,400.2396452999999,None,0,G,True,328.49099999998543,0.5013633999997182,1.442328999999745,308,359257,360197,360505,Correct,400.2396452999999,400.4395757,,,,,,,,,,,,,,,,,,,,,,,,,,,,,,,,,,,,,,,,,,,657,29,M,Y,2022-10-25_18h18.22.999,Prime-Probe,2022.2.3,85.06974868697834,
Test,Visual_Stimuli/D_Up.png,Visual_Stimuli/T_Up.png,j,Congruent,Congruent,2,4,2,4,8,,,,,,,,,,,,,0,7,7,7,,,,,,,,,,,,,,,,,,,,,,,,,,,,,,,,,,,,,,,,,,,,,,,,,,,,,,,,,0.0056643999996595085,400.91034709999985,400.9337066999999,401.00405009999986,401.8393191,401.93304220000005,403.4383725,None,0,J,True,423.0733000001692,0.5001154999997652,1.4406213999995998,408,362455,363395,363803,Correct,403.4383725,403.6382724,,,,,,,,,,,,,,,,,,,,,,,,,,,,,,,,,,,,,,,,,,,657,29,M,Y,2022-10-25_18h18.22.999,Prime-Probe,2022.2.3,85.06974868697834,
Test,Visual_Stimuli/D_Left.png,Visual_Stimuli/T_Right.png,g,Incongruent,Congruent,0,1,1,0,7,,,,,,,,,,,,,0,8,8,8,,,,,,,,,,,,,,,,,,,,,,,,,,,,,,,,,,,,,,,,,,,,,,,,,,,,,,,,,0.004404899999599365,404.10895630000005,404.1442574,404.20275730000003,405.03806429999986,405.13178990000006,,None,0,G,True,364.0628000000561,0.5105902999996488,1.439534799999592,347,365666,366596,366943,Correct,406.6488193,,,,,,,,,,,,,,,,,,,,,,,,,,,,,,,,,,,,,,,,,,,,657,29,M,Y,2022-10-25_18h18.22.999,Prime-Probe,2022.2.3,85.06974868697834,
Test,Visual_Stimuli/D_Down.png,Visual_Stimuli/T_Up.png,j,Incongruent,Incongruent,4,2,2,4,8,,,,,,,,,,,,,0,9,9,9,,,,,,,,,,,,,,,,,,,,,,,,,,,,,,,,,,,,,,,,,,,,,,,,,,,,,,,,,0.0036898999996992643,407.3077421999999,407.3430206999999,407.40150960000005,408.2367445,408.33050589999993,,None,0,J,True,340.85669999990387,0.5093897999995534,1.4380598999996437,321,368864,369794,370115,Correct,409.8475799,,,,,,,,,,,,,,,,,,,,,,,,,,,,,,,,,,,,,,,,,,,,657,29,M,Y,2022-10-25_18h18.22.999,Prime-Probe,2022.2.3,85.06974868697834,
Test,Visual_Stimuli/D_Right.png,Visual_Stimuli/T_Left.png,f,Incongruent,Incongruent,1,0,0,1,6,,,,,,,,,,,,,0,10,10,10,,,,,,,,,,,,,,,,,,,,,,,,,,,,,,,,,,,,,,,,,,,,,,,,,,,,,,,,,0.002329599999484344,410.5064717999999,410.5415823000001,410.60016840000003,411.435508,411.52926809999985,,None,0,F,True,305.4976999999326,0.5079369999996288,1.4367657999996482,279,372065,372992,373271,Correct,413.04622429999995,,,,,,,,,,,,,,,,,,,,,,,,,,,,,,,,,,,,,,,,,,,,657,29,M,Y,2022-10-25_18h18.22.999,Prime-Probe,2022.2.3,85.06974868697834,
Test,Visual_Stimuli/D_Up.png,Visual_Stimuli/T_Down.png,n,Incongruent,Incongruent,2,4,4,2,10,,,,,,,,,,,,,0,11,11,11,,,,,,,,,,,,,,,,,,,,,,,,,,,,,,,,,,,,,,,,,,,,,,,,,,,,,,,,,0.0010660999994343001,413.70510539999987,413.7403557,413.7990525,414.6342582,414.7279739999999,416.24514909999994,None,0,N,True,364.38810000004196,0.5067617999995946,1.4355166999994253,347,375263,376190,376537,Correct,416.24514909999994,416.4449735999999,,,,,,,,,,,,,,,,,,,,,,,,,,,,,,,,,,,,,,,,,,,657,29,M,Y,2022-10-25_18h18.22.999,Prime-Probe,2022.2.3,85.06974868697834,
Test,Visual_Stimuli/D_Right.png,Visual_Stimuli/T_Right.png,g,Congruent,Incongruent,1,0,1,0,7,,,,,,,,,,,,,0,12,12,12,,,,,,,,,,,,,,,,,,,,,,,,,,,,,,,,,,,,,,,,,,,,,,,,,,,,,,,,,0.000208599999496073,416.90387469999996,416.9390971,416.99777130000007,417.84465709999995,417.93844160000003,419.4436814999999,None,0,G,True,340.8472000000984,0.5055630999995628,1.4341947999994318,323,378461,379389,379712,Correct,419.4436814999999,419.64370540000004,,,,,,,,,,,,,,,,,,,,,,,,,,,,,,,,,,,,,,,,,,,657,29,M,Y,2022-10-25_18h18.22.999,Prime-Probe,2022.2.3,85.06974868697834,
Test,Visual_Stimuli/D_Up.png,Visual_Stimuli/T_Down.png,n,Incongruent,Congruent,2,4,4,2,10,,,,,,,,,,,,,0,13,13,13,,,,,,,,,,,,,,,,,,,,,,,,,,,,,,,,,,,,,,,,,,,,,,,,,,,,,,,,,0.009861799999498544,420.1026717,420.1378586000001,420.1964396999999,421.04346639999994,421.13720339999986,422.6424586999999,None,0,N,True,340.50329999990936,0.5042029999995066,1.433104599999524,321,381658,382587,382908,Correct,422.6424586999999,422.84235390000003,,,,,,,,,,,,,,,,,,,,,,,,,,,,,,,,,,,,,,,,,,,657,29,M,Y,2022-10-25_18h18.22.999,Prime-Probe,2022.2.3,85.06974868697834,
Test,Visual_Stimuli/D_Left.png,Visual_Stimuli/T_Right.png,g,Incongruent,Incongruent,0,1,1,0,7,,,,,,,,,,,,,0,14,14,14,,,,,,,,,,,,,,,,,,,,,,,,,,,,,,,,,,,,,,,,,,,,,,,,,,,,,,,,,0.008443699999361343,423.3012701,423.33651269999996,423.3950671,424.24225239999987,424.33611870000004,425.8411392999999,None,0,G,True,376.0626000000684,0.5028935999994246,1.4434227999993254,358,384857,385797,386155,Correct,425.8411392999999,426.0410259999999,,,,,,,,,,,,,,,,,,,,,,,,,,,,,,,,,,,,,,,,,,,657,29,M,Y,2022-10-25_18h18.22.999,Prime-Probe,2022.2.3,85.06974868697834,
Test,Visual_Stimuli/D_Down.png,Visual_Stimuli/T_Down.png,n,Congruent,Incongruent,4,2,4,2,10,,,,,,,,,,,,,0,15,15,15,,,,,,,,,,,,,,,,,,,,,,,,,,,,,,,,,,,,,,,,,,,,,,,,,,,,,,,,,0.007111299999223775,426.5000281,426.535208,426.59393009999985,427.44087609999997,427.53461530000004,429.03988149999986,None,0,N,True,352.7326999999332,0.5017565999992257,1.442044799999394,326,388055,388997,389323,Correct,429.03988149999986,429.2398154,,,,,,,,,,,,,,,,,,,,,,,,,,,,,,,,,,,,,,,,,,,657,29,M,Y,2022-10-25_18h18.22.999,Prime-Probe,2022.2.3,85.06974868697834,
Test,Visual_Stimuli/D_Left.png,Visual_Stimuli/T_Right.png,g,Incongruent,Congruent,0,1,1,0,7,,,,,,,,,,,,,0,16,16,16,,,,,,,,,,,,,,,,,,,,,,,,,,,,,,,,,,,,,,,,,,,,,,,,,,,,,,,,,0.005903099999386541,429.71050220000006,429.7338826,429.8044852999999,430.6395487,430.73321799999985,432.23850919999995,None,0,G,True,316.50679999984277,0.5002452999992784,1.4415657999993527,296,391255,392196,392492,Correct,432.23850919999995,432.43839019999996,,,,,,,,,,,,,,,,,,,,,,,,,,,,,,,,,,,,,,,,,,,657,29,M,Y,2022-10-25_18h18.22.999,Prime-Probe,2022.2.3,85.06974868697834,
Test,Visual_Stimuli/D_Down.png,Visual_Stimuli/T_Up.png,j,Incongruent,Incongruent,4,2,2,4,8,,,,,,,,,,,,,0,17,17,17,,,,,,,,,,,,,,,,,,,,,,,,,,,,,,,,,,,,,,,,,,,,,,,,,,,,,,,,,0.004480299999158888,432.9095651,432.9444111999999,433.00292289999993,433.8382706,433.9320568999999,,None,0,J,True,328.91779999999926,0.5108906999992087,1.4396056999992197,303,394466,395394,395697,Correct,435.44912499999987,,,,,,,,,,,,,,,,,,,,,,,,,,,,,,,,,,,,,,,,,,,,657,29,M,Y,2022-10-25_18h18.22.999,Prime-Probe,2022.2.3,85.06974868697834,
Test,Visual_Stimuli/D_Right.png,Visual_Stimuli/T_Left.png,f,Incongruent,Incongruent,1,0,0,1,6,,,,,,,,,,,,,0,18,18,18,,,,,,,,,,,,,,,,,,,,,,,,,,,,,,,,,,,,,,,,,,,,,,,,,,,,,,,,,0.004095399999187066,436.1079743,436.1430943999999,436.2016698,437.0369578,437.13072409999995,,None,0,F,True,317.22740000009253,0.5094689999991715,1.43825609999908,297,397665,398592,398889,Correct,438.64784910000003,,,,,,,,,,,,,,,,,,,,,,,,,,,,,,,,,,,,,,,,,,,,657,29,M,Y,2022-10-25_18h18.22.999,Prime-Probe,2022.2.3,85.06974868697834,
Test,Visual_Stimuli/D_Down.png,Visual_Stimuli/T_Down.png,n,Congruent,Incongruent,4,2,4,2,10,,,,,,,,,,,,,0,19,19,19,,,,,,,,,,,,,,,,,,,,,,,,,,,,,,,,,,,,,,,,,,,,,,,,,,,,,,,,,0.0027446999990843324,439.3066417,439.3420237,439.40060649999987,440.2357399,440.3293716999999,,None,0,N,True,341.01349999991726,0.5084211999992476,1.436952599999131,325,400863,401791,402116,Correct,441.8464733999999,,,,,,,,,,,,,,,,,,,,,,,,,,,,,,,,,,,,,,,,,,,,657,29,M,Y,2022-10-25_18h18.22.999,Prime-Probe,2022.2.3,85.06974868697834,
Test,Visual_Stimuli/D_Left.png,Visual_Stimuli/T_Right.png,g,Incongruent,Congruent,0,1,1,0,7,,,,,,,,,,,,,0,20,20,20,,,,,,,,,,,,,,,,,,,,,,,,,,,,,,,,,,,,,,,,,,,,,,,,,,,,,,,,,0.001347399999076515,442.5053877,442.54070449999995,442.5991523,443.434344,443.52821289999997,445.0452611999999,None,0,G,True,411.4631999998437,0.5070767999991403,1.4356831999991755,385,404061,404989,405374,Correct,445.0452611999999,445.24514499999987,,,,,,,,,,,,,,,,,,,,,,,,,,,,,,,,,,,,,,,,,,,657,29,M,Y,2022-10-25_18h18.22.999,Prime-Probe,2022.2.3,85.06974868697834,
Test,Visual_Stimuli/D_Down.png,Visual_Stimuli/T_Up.png,j,Incongruent,Incongruent,4,2,2,4,8,,,,,,,,,,,,,0,21,21,21,,,,,,,,,,,,,,,,,,,,,,,,,,,,,,,,,,,,,,,,,,,,,,,,,,,,,,,,,0.0006486999991466291,445.7040904999999,445.73926559999995,445.7980800999999,446.64487340000005,446.7386583,448.2440067,None,0,J,True,340.6595000001289,0.505631799999037,1.434905599998956,320,407259,408187,408507,Correct,448.2440067,448.44387600000005,,,,,,,,,,,,,,,,,,,,,,,,,,,,,,,,,,,,,,,,,,,657,29,M,Y,2022-10-25_18h18.22.999,Prime-Probe,2022.2.3,85.06974868697834,
Test,Visual_Stimuli/D_Left.png,Visual_Stimuli/T_Left.png,f,Congruent,Incongruent,0,1,0,1,6,,,,,,,,,,,,,0,22,22,22,,,,,,,,,,,,,,,,,,,,,,,,,,,,,,,,,,,,,,,,,,,,,,,,,,,,,,,,,-0.0007824000010714371,448.90281089999985,448.93805989999987,448.9965218,449.8435729,449.93742309999993,451.4426848999999,None,0,F,True,329.278800000111,0.50451239999893,1.433069199998954,305,410457,411387,411692,Correct,451.4426848999999,451.64270250000004,,,,,,,,,,,,,,,,,,,,,,,,,,,,,,,,,,,,,,,,,,,657,29,M,Y,2022-10-25_18h18.22.999,Prime-Probe,2022.2.3,85.06974868697834,
Test,Visual_Stimuli/D_Up.png,Visual_Stimuli/T_Up.png,j,Congruent,Congruent,2,4,2,4,8,,,,,,,,,,,,,0,23,23,23,,,,,,,,,,,,,,,,,,,,,,,,,,,,,,,,,,,,,,,,,,,,,,,,,,,,,,,,,0.008842899998853682,452.1016061,452.13681210000004,452.19535399999995,453.0423317,453.1361322,454.64139180000006,None,0,J,True,293.7067999998817,0.5032319999988886,1.4439887999990333,277,413655,414598,414875,Correct,454.64139180000006,454.84127539999986,,,,,,,,,,,,,,,,,,,,,,,,,,,,,,,,,,,,,,,,,,,657,29,M,Y,2022-10-25_18h18.22.999,Prime-Probe,2022.2.3,85.06974868697834,
Test,Visual_Stimuli/D_Right.png,Visual_Stimuli/T_Left.png,f,Incongruent,Congruent,1,0,0,1,6,,,,,,,,,,,,,0,24,24,24,,,,,,,,,,,,,,,,,,,,,,,,,,,,,,,,,,,,,,,,,,,,,,,,,,,,,,,,,0.007363699998904849,455.3002996,455.33545589999994,455.39406009999993,456.24111949999997,456.3348682999999,457.84021919999986,None,0,F,True,246.6317999999319,0.501840399998855,1.4423574999989341,223,416855,417796,418019,Correct,457.84021919999986,458.03990139999996,,,,,,,,,,,,,,,,,,,,,,,,,,,,,,,,,,,,,,,,,,,657,29,M,Y,2022-10-25_18h18.22.999,Prime-Probe,2022.2.3,85.06974868697834,
Test,Visual_Stimuli/D_Up.png,Visual_Stimuli/T_Down.png,n,Incongruent,Incongruent,2,4,4,2,10,,,,,,,,,,,,,0,25,25,25,,,,,,,,,,,,,,,,,,,,,,,,,,,,,,,,,,,,,,,,,,,,,,,,,,,,,,,,,0.005986999998867759,458.51077639999994,458.53424169999994,458.6046758,459.43976939999993,459.5335740999999,461.0388349,None,0,N,True,340.8825000001343,0.5006581999989521,1.441026299998839,316,420054,420994,421310,Correct,461.0388349,461.23877990000005,,,,,,,,,,,,,,,,,,,,,,,,,,,,,,,,,,,,,,,,,,,657,29,M,Y,2022-10-25_18h18.22.999,Prime-Probe,2022.2.3,85.06974868697834,
Test,Visual_Stimuli/D_Right.png,Visual_Stimuli/T_Right.png,g,Congruent,Incongruent,1,0,1,0,7,,,,,,,,,,,,,0,26,26,26,,,,,,,,,,,,,,,,,,,,,,,,,,,,,,,,,,,,,,,,,,,,,,,,,,,,,,,,,0.004864999998744679,461.7094480999999,461.74466430000007,461.8032249999999,462.63841920000004,462.73227309999993,,None,0,G,True,352.4328000000878,0.5110311999987971,1.4397968999987825,329,423265,424192,424521,Correct,464.24927219999995,,,,,,,,,,,,,,,,,,,,,,,,,,,,,,,,,,,,,,,,,,,,657,29,M,Y,2022-10-25_18h18.22.999,Prime-Probe,2022.2.3,85.06974868697834,
Test,Visual_Stimuli/D_Down.png,Visual_Stimuli/T_Up.png,j,Incongruent,Congruent,4,2,2,4,8,,,,,,,,,,,,,0,27,27,27,,,,,,,,,,,,,,,,,,,,,,,,,,,,,,,,,,,,,,,,,,,,,,,,,,,,,,,,,0.0041750999987471005,464.90814279999995,464.94342460000007,465.0019634,465.8371843,465.9309238000001,,None,0,J,True,305.4824999999255,0.5098514999988311,1.438538699998844,283,426463,427391,427674,Correct,467.44802849999996,,,,,,,,,,,,,,,,,,,,,,,,,,,,,,,,,,,,,,,,,,,,657,29,M,Y,2022-10-25_18h18.22.999,Prime-Probe,2022.2.3,85.06974868697834,
Test,Visual_Stimuli/D_Right.png,Visual_Stimuli/T_Left.png,f,Incongruent,Incongruent,1,0,0,1,6,,,,,,,,,,,,,0,28,28,28,,,,,,,,,,,,,,,,,,,,,,,,,,,,,,,,,,,,,,,,,,,,,,,,,,,,,,,,,0.00295729999879768,468.1069072999999,468.1420453999999,468.20065610000006,469.035926,469.1296560999999,,None,0,F,True,270.3317000000425,0.5084937999986323,1.4372724999986985,251,429661,430591,430842,Correct,470.6468061999999,,,,,,,,,,,,,,,,,,,,,,,,,,,,,,,,,,,,,,,,,,,,657,29,M,Y,2022-10-25_18h18.22.999,Prime-Probe,2022.2.3,85.06974868697834,
Test,Visual_Stimuli/D_Up.png,Visual_Stimuli/T_Down.png,n,Incongruent,Incongruent,2,4,4,2,10,,,,,,,,,,,,,0,29,29,29,,,,,,,,,,,,,,,,,,,,,,,,,,,,,,,,,,,,,,,,,,,,,,,,,,,,,,,,,0.001798499998585612,471.30565120000006,471.3409042999999,471.3993952000001,472.2346596,472.32843950000006,473.8454285,None,0,N,True,294.0484999999171,0.5074053999987882,1.4358582999986993,271,432859,433789,434060,Correct,473.8454285,474.0453895999999,,,,,,,,,,,,,,,,,,,,,,,,,,,,,,,,,,,,,,,,,,,657,29,M,Y,2022-10-25_18h18.22.999,Prime-Probe,2022.2.3,85.06974868697834,
Test,Visual_Stimuli/D_Right.png,Visual_Stimuli/T_Left.png,f,Incongruent,Incongruent,1,0,0,1,6,,,,,,,,,,,,,0,30,30,30,,,,,,,,,,,,,,,,,,,,,,,,,,,,,,,,,,,,,,,,,,,,,,,,,,,,,,,,,0.0006568999986029667,474.5042481999999,474.5395432,474.5980569999999,475.43350310000005,475.52710879999995,477.0442438,None,0,F,True,258.5170999998354,0.5059299999986706,1.4346120999987306,235,436059,436987,437222,Correct,477.0442438,477.24410009999997,,,,,,,,,,,,,,,,,,,,,,,,,,,,,,,,,,,,,,,,,,,657,29,M,Y,2022-10-25_18h18.22.999,Prime-Probe,2022.2.3,85.06974868697834,
Test,Visual_Stimuli/D_Down.png,Visual_Stimuli/T_Down.png,n,Congruent,Incongruent,4,2,4,2,10,,,,,,,,,,,,,0,31,31,31,,,,,,,,,,,,,,,,,,,,,,,,,,,,,,,,,,,,,,,,,,,,,,,,,,,,,,,,,-0.0005095000014989637,477.7030829,477.73824289999993,477.79683019999993,478.6439768,478.73782529999994,480.24284869999997,None,0,N,True,352.33739999989666,0.5046859999986282,1.433512499998642,335,439257,440186,440521,Correct,480.24284869999997,480.4428427999999,,,,,,,,,,,,,,,,,,,,,,,,,,,,,,,,,,,,,,,,,,,657,29,M,Y,2022-10-25_18h18.22.999,Prime-Probe,2022.2.3,85.06974868697834,
Test,Visual_Stimuli/D_Right.png,Visual_Stimuli/T_Right.png,g,Congruent,Congruent,1,0,1,0,7,,,,,,,,,,,,,0,32,32,32,,,,,,,,,,,,,,,,,,,,,,,,,,,,,,,,,,,,,,,,,,,,,,,,,,,,,,,,,0.008967299998630551,480.90173129999994,480.93697440000005,480.9956944999999,481.8425302999999,481.9363028999999,483.4416351,None,0,G,True,341.0988000000543,0.5034712999986368,1.4437481999984811,321,442455,443396,443717,Correct,483.4416351,483.64166449999993,,,,,,,,,,,,,,,,,,,,,,,,,,,,,,,,,,,,,,,,,,,657,29,M,Y,2022-10-25_18h18.22.999,Prime-Probe,2022.2.3,85.06974868697834,
Test,Visual_Stimuli/D_Up.png,Visual_Stimuli/T_Up.png,j,Congruent,Congruent,2,4,2,4,8,,,,,,,,,,,,,0,33,33,33,,,,,,,,,,,,,,,,,,,,,,,,,,,,,,,,,,,,,,,,,,,,,,,,,,,,,,,,,0.007864099998414531,484.10053419999986,484.1358911,484.1942666,485.0412575999999,485.1351210999999,486.64041380000003,None,0,J,True,352.6896000000761,0.5022910999985015,1.4425079999984973,329,445654,446594,446923,Correct,486.64041380000003,486.840236,,,,,,,,,,,,,,,,,,,,,,,,,,,,,,,,,,,,,,,,,,,657,29,M,Y,2022-10-25_18h18.22.999,Prime-Probe,2022.2.3,85.06974868697834,
Test,Visual_Stimuli/D_Right.png,Visual_Stimuli/T_Right.png,g,Congruent,Congruent,1,0,1,0,7,,,,,,,,,,,,,0,34,34,34,,,,,,,,,,,,,,,,,,,,,,,,,,,,,,,,,,,,,,,,,,,,,,,,,,,,,,,,,0.0063261999985115835,487.3108984999999,487.33436830000005,487.40474689999996,488.24004709999986,488.33374649999996,489.8391102999999,None,0,G,True,317.3375000001215,0.500707099998408,1.441225199998371,291,448852,449792,450083,Correct,489.8391102999999,490.03896869999994,,,,,,,,,,,,,,,,,,,,,,,,,,,,,,,,,,,,,,,,,,,657,29,M,Y,2022-10-25_18h18.22.999,Prime-Probe,2022.2.3,85.06974868697834,
Test,Visual_Stimuli/D_Down.png,Visual_Stimuli/T_Up.png,j,Incongruent,Congruent,4,2,2,4,8,,,,,,,,,,,,,0,35,35,35,,,,,,,,,,,,,,,,,,,,,,,,,,,,,,,,,,,,,,,,,,,,,,,,,,,,,,,,,0.005077199998368087,490.5096288,490.53310469999997,490.60342249999985,491.4387076999999,491.53249959999994,493.0377455,None,0,J,True,434.9827999999434,0.5109514999983276,1.4399287999983699,417,452063,452993,453410,Correct,493.0377455,493.23764789999996,,,,,,,,,,,,,,,,,,,,,,,,,,,,,,,,,,,,,,,,,,,657,29,M,Y,2022-10-25_18h18.22.999,Prime-Probe,2022.2.3,85.06974868697834,
Test,Visual_Stimuli/D_Left.png,Visual_Stimuli/T_Left.png,f,Congruent,Incongruent,0,1,0,1,6,,,,,,,,,,,,,0,36,36,36,,,,,,,,,,,,,,,,,,,,,,,,,,,,,,,,,,,,,,,,,,,,,,,,,,,,,,,,,0.0037354999983563175,493.708629,493.7435923999999,493.8022888999999,494.6375221999999,494.73126,,None,0,F,True,293.61720000019886,0.5100194999984069,1.438901399998258,269,455261,456191,456460,Correct,496.2482565999999,,,,,,,,,,,,,,,,,,,,,,,,,,,,,,,,,,,,,,,,,,,,657,29,M,Y,2022-10-25_18h18.22.999,Prime-Probe,2022.2.3,85.06974868697834,
Test,Visual_Stimuli/D_Up.png,Visual_Stimuli/T_Up.png,j,Congruent,Congruent,2,4,2,4,8,,,,,,,,,,,,,0,37,37,37,,,,,,,,,,,,,,,,,,,,,,,,,,,,,,,,,,,,,,,,,,,,,,,,,,,,,,,,,0.003647599998430451,496.9071173,496.9422849,497.00083619999987,497.8361943,497.93010449999997,,None,0,J,True,376.2824999998884,0.5086997999983396,1.4373291999984303,356,458459,459389,459745,Correct,499.4472616999999,,,,,,,,,,,,,,,,,,,,,,,,,,,,,,,,,,,,,,,,,,,,657,29,M,Y,2022-10-25_18h18.22.999,Prime-Probe,2022.2.3,85.06974868697834,
Test,Visual_Stimuli/D_Left.png,Visual_Stimuli/T_Left.png,f,Congruent,Congruent,0,1,0,1,6,,,,,,,,,,,,,0,38,38,38,,,,,,,,,,,,,,,,,,,,,,,,,,,,,,,,,,,,,,,,,,,,,,,,,,,,,,,,,0.0018701999981658446,500.1059032999999,500.1409575,500.1995718999999,501.0348982999999,501.1287090999999,,None,0,F,True,281.99210000002495,0.5073250999982974,1.4361119999982748,254,461659,462588,462842,Correct,502.64574790000006,502.8455669,,,,,,,,,,,,,,,,,,,,,,,,,,,,,,,,,,,,,,,,,,,657,29,M,Y,2022-10-25_18h18.22.999,Prime-Probe,2022.2.3,85.06974868697834,
Test,Visual_Stimuli/D_Up.png,Visual_Stimuli/T_Down.png,n,Incongruent,Congruent,2,4,4,2,10,,,,,,,,,,,,,0,39,39,39,,,,,,,,,,,,,,,,,,,,,,,,,,,,,,,,,,,,,,,,,,,,,,,,,,,,,,,,,0.0011435999981586065,503.30464600000005,503.3399431999999,503.3983037999999,504.2336972999999,504.3273686,505.844435,None,0,N,True,470.1759999998103,0.506348299998308,1.4348339999983182,446,464857,465786,466232,Correct,505.844435,506.04437499999995,,,,,,,,,,,,,,,,,,,,,,,,,,,,,,,,,,,,,,,,,,,657,29,M,Y,2022-10-25_18h18.22.999,Prime-Probe,2022.2.3,85.06974868697834,
Test,Visual_Stimuli/D_Left.png,Visual_Stimuli/T_Left.png,f,Congruent,Incongruent,0,1,0,1,6,,,,,,,,,,,,,0,40,40,40,,,,,,,,,,,,,,,,,,,,,,,,,,,,,,,,,,,,,,,,,,,,,,,,,,,,,,,,,-0.00045240000190460705,506.50342079999996,506.5384707999999,506.5969969999999,507.4441041,507.5378923999999,509.04315859999997,None,0,F,True,270.449299999882,0.5048445999982505,1.434149399998205,245,468056,468984,469229,Correct,509.04315859999997,509.24302420000004,,,,,,,,,,,,,,,,,,,,,,,,,,,,,,,,,,,,,,,,,,,657,29,M,Y,2022-10-25_18h18.22.999,Prime-Probe,2022.2.3,85.06974868697834,
Test,Visual_Stimuli/D_Up.png,Visual_Stimuli/T_Up.png,j,Congruent,Congruent,2,4,2,4,8,,,,,,,,,,,,,0,41,41,41,,,,,,,,,,,,,,,,,,,,,,,,,,,,,,,,,,,,,,,,,,,,,,,,,,,,,,,,,0.009176599998227175,509.70199920000005,509.7378354,509.79578160000005,510.6427824,510.73657460000004,512.2418289,None,0,J,True,329.10390000006373,0.5046416999980465,1.4440461999981835,310,471254,472194,472504,Correct,512.2418289,512.4417469,,,,,,,,,,,,,,,,,,,,,,,,,,,,,,,,,,,,,,,,,,,657,29,M,Y,2022-10-25_18h18.22.999,Prime-Probe,2022.2.3,85.06974868697834,
Test,Visual_Stimuli/D_Left.png,Visual_Stimuli/T_Right.png,g,Incongruent,Congruent,0,1,1,0,7,,,,,,,,,,,,,0,42,42,42,,,,,,,,,,,,,,,,,,,,,,,,,,,,,,,,,,,,,,,,,,,,,,,,,,,,,,,,,0.007832799998141127,512.9007079,512.9358732999999,512.9945605,513.8421627,513.9355224999999,515.4405537999999,None,0,G,True,305.45340000003307,0.5021979999980886,1.4429220999979862,288,474452,475393,475681,Correct,515.4405537999999,515.6404642999998,,,,,,,,,,,,,,,,,,,,,,,,,,,,,,,,,,,,,,,,,,,657,29,M,Y,2022-10-25_18h18.22.999,Prime-Probe,2022.2.3,85.06974868697834,
Test,Visual_Stimuli/D_Down.png,Visual_Stimuli/T_Down.png,n,Congruent,Incongruent,4,2,4,2,10,,,,,,,,,,,,,0,43,43,43,,,,,,,,,,,,,,,,,,,,,,,,,,,,,,,,,,,,,,,,,,,,,,,,,,,,,,,,,0.006551499998067811,516.1112536,516.1345971000001,516.2049591999998,517.0403328,517.1339634999999,518.6392659,None,0,N,True,294.1029000000981,0.5009547999979986,1.441437199998063,271,477651,478593,478864,Correct,518.6392659,518.8392008999999,,,,,,,,,,,,,,,,,,,,,,,,,,,,,,,,,,,,,,,,,,,657,29,M,Y,2022-10-25_18h18.22.999,Prime-Probe,2022.2.3,85.06974868697834,
Test,Visual_Stimuli/D_Left.png,Visual_Stimuli/T_Left.png,f,Congruent,Congruent,0,1,0,1,6,,,,,,,,,,,,,0,44,44,44,,,,,,,,,,,,,,,,,,,,,,,,,,,,,,,,,,,,,,,,,,,,,,,,,,,,,,,,,0.005295199998045064,519.3099087999999,519.3332995000001,519.4040207,520.2389905999999,520.3326622,521.8381875,None,0,F,True,258.4736999999677,0.5112473999979557,1.4402228999979343,235,480862,481791,482026,Correct,521.8381875,522.0379005,,,,,,,,,,,,,,,,,,,,,,,,,,,,,,,,,,,,,,,,,,,657,29,M,Y,2022-10-25_18h18.22.999,Prime-Probe,2022.2.3,85.06974868697834,
Test,Visual_Stimuli/D_Down.png,Visual_Stimuli/T_Down.png,n,Congruent,Congruent,4,2,4,2,10,,,,,,,,,,,,,0,45,45,45,,,,,,,,,,,,,,,,,,,,,,,,,,,,,,,,,,,,,,,,,,,,,,,,,,,,,,,,,0.003986699997994947,522.508658,522.5438921,522.6023806999999,523.4378623,523.5315759,,None,0,N,True,293.706899999961,0.5102918999980375,1.4390258999978869,278,484062,484989,485267,Correct,525.0483969,,,,,,,,,,,,,,,,,,,,,,,,,,,,,,,,,,,,,,,,,,,,657,29,M,Y,2022-10-25_18h18.22.999,Prime-Probe,2022.2.3,85.06974868697834,
Test,Visual_Stimuli/D_Right.png,Visual_Stimuli/T_Left.png,f,Incongruent,Congruent,1,0,0,1,6,,,,,,,,,,,,,0,46,46,46,,,,,,,,,,,,,,,,,,,,,,,,,,,,,,,,,,,,,,,,,,,,,,,,,,,,,,,,,0.0033962999978029984,525.7075067999999,525.7426031,525.801271,526.6363352999999,526.7301568,,None,0,F,True,281.84779999992315,0.5091220999979669,1.4377757999980076,258,487259,488188,488446,Correct,528.2471412,,,,,,,,,,,,,,,,,,,,,,,,,,,,,,,,,,,,,,,,,,,,657,29,M,Y,2022-10-25_18h18.22.999,Prime-Probe,2022.2.3,85.06974868697834,
Test,Visual_Stimuli/D_Up.png,Visual_Stimuli/T_Down.png,n,Incongruent,Incongruent,2,4,4,2,10,,,,,,,,,,,,,0,47,47,47,,,,,,,,,,,,,,,,,,,,,,,,,,,,,,,,,,,,,,,,,,,,,,,,,,,,,,,,,0.002058499997929175,528.9061827999999,528.9412232,528.9999135,529.8351917999998,529.9288750000001,,None,0,N,True,587.7297999998063,0.5077339999977539,1.4363835999979528,567,490457,491386,491953,Correct,531.4459322,,,,,,,,,,,,,,,,,,,,,,,,,,,,,,,,,,,,,,,,,,,,657,29,M,Y,2022-10-25_18h18.22.999,Prime-Probe,2022.2.3,85.06974868697834,
Test,Visual_Stimuli/D_Right.png,Visual_Stimuli/T_Left.png,f,Incongruent,Incongruent,1,0,0,1,6,,,,,,,,,,,,,0,48,48,48,,,,,,,,,,,,,,,,,,,,,,,,,,,,,,,,,,,,,,,,,,,,,,,,,,,,,,,,,0.0008921999979065731,532.1047865,532.1400365,532.1985583000001,533.0339442,533.127694,534.6447805,None,0,F,True,246.6761000000588,0.5063947999979064,1.4351219999978184,221,493656,494584,494805,Correct,534.6447805,534.8445631,,,,,,,,,,,,,,,,,,,,,,,,,,,,,,,,,,,,,,,,,,,657,29,M,Y,2022-10-25_18h18.22.999,Prime-Probe,2022.2.3,85.06974868697834,
Test,Visual_Stimuli/D_Down.png,Visual_Stimuli/T_Down.png,n,Congruent,Incongruent,4,2,4,2,10,,,,,,,,,,,,,0,49,49,49,,,,,,,,,,,,,,,,,,,,,,,,,,,,,,,,,,,,,,,,,,,,,,,,,,,,,,,,,-0.00030930000230000587,535.3035611999999,535.3387135999999,535.3972466999999,536.2443066000001,536.3380674999999,537.8433018000001,None,0,N,True,293.8442000001942,0.5051058999977158,1.4338302999976804,271,496854,497785,498056,Correct,537.8433018000001,538.0432501,,,,,,,,,,,,,,,,,,,,,,,,,,,,,,,,,,,,,,,,,,,657,29,M,Y,2022-10-25_18h18.22.999,Prime-Probe,2022.2.3,85.06974868697834,
Test,Visual_Stimuli/D_Left.png,Visual_Stimuli/T_Left.png,f,Congruent,Congruent,0,1,0,1,6,,,,,,,,,,,,,0,50,50,50,,,,,,,,,,,,,,,,,,,,,,,,,,,,,,,,,,,,,,,,,,,,,,,,,,,,,,,,,0.009374099997785379,538.5023529,538.5374191999999,538.5959843,539.4429673,539.5367741,541.0421059999999,None,0,F,True,246.6784999999163,0.5038398999977289,1.4443833999978324,227,500052,500993,501220,Correct,541.0421059999999,541.2420637999999,,,,,,,,,,,,,,,,,,,,,,,,,,,,,,,,,,,,,,,,,,,657,29,M,Y,2022-10-25_18h18.22.999,Prime-Probe,2022.2.3,85.06974868697834,
Test,Visual_Stimuli/D_Up.png,Visual_Stimuli/T_Up.png,j,Congruent,Congruent,2,4,2,4,8,,,,,,,,,,,,,0,51,51,51,,,,,,,,,,,,,,,,,,,,,,,,,,,,,,,,,,,,,,,,,,,,,,,,,,,,,,,,,0.008157999997592924,541.7009762,541.7364379999999,541.7948273,542.6417787,542.7354642999999,544.240773,None,0,J,True,293.735100000049,0.502855299997691,1.442989399997714,273,503252,504193,504466,Correct,544.240773,544.4406687000001,,,,,,,,,,,,,,,,,,,,,,,,,,,,,,,,,,,,,,,,,,,657,29,M,Y,2022-10-25_18h18.22.999,Prime-Probe,2022.2.3,85.06974868697834,
Test,Visual_Stimuli/D_Right.png,Visual_Stimuli/T_Right.png,g,Congruent,Congruent,1,0,1,0,7,,,,,,,,,,,,,0,52,52,52,,,,,,,,,,,,,,,,,,,,,,,,,,,,,,,,,,,,,,,,,,,,,,,,,,,,,,,,,0.006767399997670509,544.8995373,544.9349090000001,544.9936150999999,545.8405149999999,545.9342882999999,547.4394963,None,0,G,True,470.12229999995725,0.501308499997549,1.4417312999976275,450,506451,507391,507841,Correct,547.4394963,547.6397106,,,,,,,,,,,,,,,,,,,,,,,,,,,,,,,,,,,,,,,,,,,657,29,M,Y,2022-10-25_18h18.22.999,Prime-Probe,2022.2.3,85.06974868697834,
Test,Visual_Stimuli/D_Up.png,Visual_Stimuli/T_Down.png,n,Incongruent,Congruent,2,4,4,2,10,,,,,,,,,,,,,0,53,53,53,,,,,,,,,,,,,,,,,,,,,,,,,,,,,,,,,,,,,,,,,,,,,,,,,,,,,,,,,0.005802599997650759,548.1102002999999,548.1335515999999,548.2040319999999,549.0391377999999,549.1329813,550.6381973999999,None,0,N,True,329.074700000092,0.5000287999976081,1.4404029999975592,310,509649,510589,510899,Correct,550.6381973999999,550.8381549999999,,,,,,,,,,,,,,,,,,,,,,,,,,,,,,,,,,,,,,,,,,,657,29,M,Y,2022-10-25_18h18.22.999,Prime-Probe,2022.2.3,85.06974868697834,
Test,Visual_Stimuli/D_Right.png,Visual_Stimuli/T_Left.png,f,Incongruent,Incongruent,1,0,0,1,6,,,,,,,,,,,,,0,54,54,54,,,,,,,,,,,,,,,,,,,,,,,,,,,,,,,,,,,,,,,,,,,,,,,,,,,,,,,,,0.004252199997608841,551.3089187999999,551.3440713999998,551.4026506,552.2378678,552.3316840999998,,None,0,F,True,223.23600000004262,0.5105422999974962,1.4391627999975753,201,512859,513788,513989,Correct,553.8486834999999,,,,,,,,,,,,,,,,,,,,,,,,,,,,,,,,,,,,,,,,,,,,657,29,M,Y,2022-10-25_18h18.22.999,Prime-Probe,2022.2.3,85.06974868697834,
Test,Visual_Stimuli/D_Up.png,Visual_Stimuli/T_Up.png,j,Congruent,Incongruent,2,4,2,4,8,,,,,,,,,,,,,0,55,55,55,,,,,,,,,,,,,,,,,,,,,,,,,,,,,,,,,,,,,,,,,,,,,,,,,,,,,,,,,0.003694499997436651,554.5075655,554.5428087,554.6014390999999,555.4366468000001,555.5303796000001,,None,0,J,True,293.7464000001455,0.5092580999973961,1.4379277999973965,270,516057,516986,517256,Correct,557.0474465,,,,,,,,,,,,,,,,,,,,,,,,,,,,,,,,,,,,,,,,,,,,657,29,M,Y,2022-10-25_18h18.22.999,Prime-Probe,2022.2.3,85.06974868697834,
Test,Visual_Stimuli/D_Left.png,Visual_Stimuli/T_Right.png,g,Incongruent,Congruent,0,1,1,0,7,,,,,,,,,,,,,0,56,56,56,,,,,,,,,,,,,,,,,,,,,,,,,,,,,,,,,,,,,,,,,,,,,,,,,,,,,,,,,0.002428899997539702,557.7063002,557.7415622999999,557.8002282,558.6355928999999,558.7291023999999,,None,0,G,True,329.05619999996816,0.5079103999973995,1.4365891999975702,311,519256,520184,520495,Correct,560.2461627999999,,,,,,,,,,,,,,,,,,,,,,,,,,,,,,,,,,,,,,,,,,,,657,29,M,Y,2022-10-25_18h18.22.999,Prime-Probe,2022.2.3,85.06974868697834,
Test,Visual_Stimuli/D_Down.png,Visual_Stimuli/T_Down.png,n,Congruent,Incongruent,4,2,4,2,10,,,,,,,,,,,,,0,57,57,57,,,,,,,,,,,,,,,,,,,,,,,,,,,,,,,,,,,,,,,,,,,,,,,,,,,,,,,,,0.0012723999973331956,560.9049900999998,560.9402092999999,560.9988217999999,561.8340837999999,561.927868,563.4448614999999,None,0,N,True,329.2973999998594,0.5065726999973776,1.4353582999974606,304,522454,523383,523687,Correct,563.4448614999999,563.6448295999999,,,,,,,,,,,,,,,,,,,,,,,,,,,,,,,,,,,,,,,,,,,657,29,M,Y,2022-10-25_18h18.22.999,Prime-Probe,2022.2.3,85.06974868697834,
Test,Visual_Stimuli/D_Left.png,Visual_Stimuli/T_Right.png,g,Incongruent,Congruent,0,1,1,0,7,,,,,,,,,,,,,0,58,58,58,,,,,,,,,,,,,,,,,,,,,,,,,,,,,,,,,,,,,,,,,,,,,,,,,,,,,,,,,4.9199997420146246e-05,564.1039045,564.1389271,564.1975553,565.0444379,565.1382732,566.6436507999999,None,0,G,True,340.7900999998219,0.5053222999972604,1.4341756999974677,317,525653,526583,526900,Correct,566.6436507999999,566.8436706999998,,,,,,,,,,,,,,,,,,,,,,,,,,,,,,,,,,,,,,,,,,,657,29,M,Y,2022-10-25_18h18.22.999,Prime-Probe,2022.2.3,85.06974868697834,
Test,Visual_Stimuli/D_Up.png,Visual_Stimuli/T_Down.png,n,Incongruent,Incongruent,2,4,4,2,10,,,,,,,,,,,,,0,59,59,59,,,,,,,,,,,,,,,,,,,,,,,,,,,,,,,,,,,,,,,,,,,,,,,,,,,,,,,,,0.00984799999741881,567.3024754,567.3376949999999,567.3963173,568.2432570999999,568.3369367,569.8424075999999,None,0,N,True,317.17170000001715,0.5040897999972458,1.4445843999972112,301,528853,529793,530094,Correct,569.8424075999999,570.0422968,,,,,,,,,,,,,,,,,,,,,,,,,,,,,,,,,,,,,,,,,,,657,29,M,Y,2022-10-25_18h18.22.999,Prime-Probe,2022.2.3,85.06974868697834,
Test,Visual_Stimuli/D_Left.png,Visual_Stimuli/T_Left.png,f,Congruent,Incongruent,0,1,0,1,6,,,,,,,,,,,,,0,60,60,60,,,,,,,,,,,,,,,,,,,,,,,,,,,,,,,,,,,,,,,,,,,,,,,,,,,,,,,,,0.008436799997298294,570.5011904999999,570.5366328,570.5949286,571.4419578,571.5357879000001,573.0410684999999,None,0,F,True,246.71049999983552,0.5030537999973603,1.4432477999973798,230,532051,532991,533221,Correct,573.0410684999999,573.2409402000001,,,,,,,,,,,,,,,,,,,,,,,,,,,,,,,,,,,,,,,,,,,657,29,M,Y,2022-10-25_18h18.22.999,Prime-Probe,2022.2.3,85.06974868697834,
Test,Visual_Stimuli/D_Down.png,Visual_Stimuli/T_Up.png,j,Incongruent,Congruent,4,2,2,4,8,,,,,,,,,,,,,0,61,61,61,,,,,,,,,,,,,,,,,,,,,,,,,,,,,,,,,,,,,,,,,,,,,,,,,,,,,,,,,0.007042799997179827,573.6998446,573.7350842999999,573.7937689,574.6406924999999,574.7344611999999,576.2397205,None,0,J,True,340.789900000118,0.5015062999971178,1.4419562999971731,317,535249,536190,536507,Correct,576.2397205,576.4396935,,,,,,,,,,,,,,,,,,,,,,,,,,,,,,,,,,,,,,,,,,,657,29,M,Y,2022-10-25_18h18.22.999,Prime-Probe,2022.2.3,85.06974868697834,
Test,Visual_Stimuli/D_Left.png,Visual_Stimuli/T_Left.png,f,Congruent,Incongruent,0,1,0,1,6,,,,,,,,,,,,,0,62,62,62,,,,,,,,,,,,,,,,,,,,,,,,,,,,,,,,,,,,,,,,,,,,,,,,,,,,,,,,,0.0057781999971666664,576.9104878999999,576.9344558999999,577.0043449,577.8394175999999,577.9331067,579.4384654999999,None,0,F,True,281.9729999998799,0.5012986999972782,1.4407164999972792,257,538448,539388,539645,Correct,579.4384654999999,579.6384357,,,,,,,,,,,,,,,,,,,,,,,,,,,,,,,,,,,,,,,,,,,657,29,M,Y,2022-10-25_18h18.22.999,Prime-Probe,2022.2.3,85.06974868697834,
Test,Visual_Stimuli/D_Up.png,Visual_Stimuli/T_Up.png,j,Congruent,Congruent,2,4,2,4,8,,,,,,,,,,,,,0,63,63,63,,,,,,,,,,,,,,,,,,,,,,,,,,,,,,,,,,,,,,,,,,,,,,,,,,,,,,,,,0.004519499997059029,580.1092271,580.1443112,580.2030474999999,581.0381765,581.1319045,,None,0,J,True,329.02770000009696,0.5106893999970907,1.4394650999970509,314,541658,542586,542900,Correct,582.6489858,,,,,,,,,,,,,,,,,,,,,,,,,,,,,,,,,,,,,,,,,,,,657,29,M,Y,2022-10-25_18h18.22.999,Prime-Probe,2022.2.3,85.06974868697834,
Test,Visual_Stimuli/D_Right.png,Visual_Stimuli/T_Right.png,g,Congruent,Congruent,1,0,1,0,7,,,,,,,,,,,,,0,64,64,64,,,,,,,,,,,,,,,,,,,,,,,,,,,,,,,,,,,,,,,,,,,,,,,,,,,,,,,,,0.004004899997198663,583.3078335999999,583.3429848000001,583.4016179,584.2369999,584.3305619,,None,0,G,True,352.76279999993676,0.5093690999970022,1.4380260999971597,335,544856,545785,546120,Correct,585.8476728,,,,,,,,,,,,,,,,,,,,,,,,,,,,,,,,,,,,,,,,,,,,657,29,M,Y,2022-10-25_18h18.22.999,Prime-Probe,2022.2.3,85.06974868697834,
Test,Visual_Stimuli/D_Up.png,Visual_Stimuli/T_Down.png,n,Incongruent,Congruent,2,4,4,2,10,,,,,,,,,,,,,0,65,65,65,,,,,,,,,,,,,,,,,,,,,,,,,,,,,,,,,,,,,,,,,,,,,,,,,,,,,,,,,0.00277229999710471,586.5065973999999,586.5416582999999,586.6002836,587.4356042,587.529366,,None,0,N,True,305.607400000099,0.5080222999970374,1.436859899996989,289,548055,548985,549274,Correct,589.0463614999999,,,,,,,,,,,,,,,,,,,,,,,,,,,,,,,,,,,,,,,,,,,,657,29,M,Y,2022-10-25_18h18.22.999,Prime-Probe,2022.2.3,85.06974868697834,
Test,Visual_Stimuli/D_Left.png,Visual_Stimuli/T_Right.png,g,Incongruent,Incongruent,0,1,1,0,7,,,,,,,,,,,,,0,66,66,66,,,,,,,,,,,,,,,,,,,,,,,,,,,,,,,,,,,,,,,,,,,,,,,,,,,,,,,,,0.0011955999968904507,589.7052157999999,589.7404913,589.7992087999999,590.6343775999999,590.7282564,592.2450922999999,None,0,G,True,305.4277999999613,0.5069514999970579,1.4356343999970704,283,551255,552183,552466,Correct,592.2450922999999,592.4450422,,,,,,,,,,,,,,,,,,,,,,,,,,,,,,,,,,,,,,,,,,,657,29,M,Y,2022-10-25_18h18.22.999,Prime-Probe,2022.2.3,85.06974868697834,
Test,Visual_Stimuli/D_Down.png,Visual_Stimuli/T_Up.png,j,Incongruent,Incongruent,4,2,2,4,8,,,,,,,,,,,,,0,67,67,67,,,,,,,,,,,,,,,,,,,,,,,,,,,,,,,,,,,,,,,,,,,,,,,,,,,,,,,,,0.0003858999968997523,592.9039925,592.9391289999999,592.9976737,593.8451302999999,593.9385344,595.4438020999999,None,0,J,True,293.878100000029,0.5055359999969369,1.434186299997009,275,554453,555382,555657,Correct,595.4438020999999,595.6437174,,,,,,,,,,,,,,,,,,,,,,,,,,,,,,,,,,,,,,,,,,,657,29,M,Y,2022-10-25_18h18.22.999,Prime-Probe,2022.2.3,85.06974868697834,
Test,Visual_Stimuli/D_Right.png,Visual_Stimuli/T_Left.png,f,Incongruent,Incongruent,1,0,0,1,6,,,,,,,,,,,,,0,68,68,68,,,,,,,,,,,,,,,,,,,,,,,,,,,,,,,,,,,,,,,,,,,,,,,,,,,,,,,,,0.009817999996812432,596.1027133999999,596.1379348999999,596.1965533,597.0437428999999,597.1372753999999,598.6424849,None,0,F,True,282.0438999999624,0.5043195999969612,1.4330181999969227,257,557651,558580,558837,Correct,598.6424849,598.8424133999999,,,,,,,,,,,,,,,,,,,,,,,,,,,,,,,,,,,,,,,,,,,657,29,M,Y,2022-10-25_18h18.22.999,Prime-Probe,2022.2.3,85.06974868697834,
Test,Visual_Stimuli/D_Up.png,Visual_Stimuli/T_Up.png,j,Congruent,Incongruent,2,4,2,4,8,,,,,,,,,,,,,0,69,69,69,,,,,,,,,,,,,,,,,,,,,,,,,,,,,,,,,,,,,,,,,,,,,,,,,,,,,,,,,0.008501599996861842,599.3013375,599.3366269,599.3951652999999,600.2422858,600.3361112999999,601.8418142,None,0,J,True,364.2913999999564,0.5030223999967802,1.4434620999968502,347,560850,561790,562137,Correct,601.8418142,602.0411583,,,,,,,,,,,,,,,,,,,,,,,,,,,,,,,,,,,,,,,,,,,657,29,M,Y,2022-10-25_18h18.22.999,Prime-Probe,2022.2.3,85.06974868697834,
Test,Visual_Stimuli/D_Left.png,Visual_Stimuli/T_Right.png,g,Incongruent,Congruent,0,1,1,0,7,,,,,,,,,,,,,0,70,70,70,,,,,,,,,,,,,,,,,,,,,,,,,,,,,,,,,,,,,,,,,,,,,,,,,,,,,,,,,0.007251599996834557,602.5001092999998,602.5353324,602.5938991,603.4409576999999,603.5346992,605.0399869,None,0,G,True,376.06879999998455,0.5016943999967225,1.4422001999969325,351,564048,564988,565339,Correct,605.0399869,605.2399092999999,,,,,,,,,,,,,,,,,,,,,,,,,,,,,,,,,,,,,,,,,,,657,29,M,Y,2022-10-25_18h18.22.999,Prime-Probe,2022.2.3,85.06974868697834,
Test,Visual_Stimuli/D_Down.png,Visual_Stimuli/T_Down.png,n,Congruent,Incongruent,4,2,4,2,10,,,,,,,,,,,,,0,71,71,71,,,,,,,,,,,,,,,,,,,,,,,,,,,,,,,,,,,,,,,,,,,,,,,,,,,,,,,,,0.0060290999967946846,605.7106312999999,605.7341188999999,605.8045342999999,606.6395233999999,606.733461,608.2387965,None,0,N,True,317.1426999999767,0.5004422999968483,1.4410175999967123,290,567246,568187,568477,Correct,608.2387965,608.539145,,,,,,,,,,,,,,,,,,,,,,,,,,,,,,,,,,,,,,,,,,,657,29,M,Y,2022-10-25_18h18.22.999,Prime-Probe,2022.2.3,85.06974868697834,
,,,,,,,,,,,,,,,,,,,,,,,,,,,,,,,,,,,,,,,,,,,,,,,,,,,,,,,,,,,,,,,,,,,,,,,,,,,,,,,,,,,,,,,,,,,,,,,,,,,,,,,,,,,609.5788249,609.5788249,None,,,,,608.539145,608.539145,,,,,,,,,,,,,,,,,,,,,,,,,,,,,,,657,29,M,Y,2022-10-25_18h18.22.999,Prime-Probe,2022.2.3,85.06974868697834,
Test,Visual_Stimuli/D_Left.png,Visual_Stimuli/T_Right.png,g,Incongruent,None,0,1,1,0,7,,,,,,,,,,,,,,,,,0,0,0,0,,,,,,,,,,,,,,,,,,,,,,,,,,,,,,,,,,,,,,,,,,,,,,,,,609.5788249,611.3785536,611.3785536,611.5807915,0.0023535000000265427,612.0492088999999,612.0844944999999,612.1429986999999,612.9783074,613.0719664999999,,None,0,G,True,329.0084999998726,0.5090523000001212,1.4378848000001199,311,573597,574527,574838,Correct,614.5892197000001,,,,,,,,,,,,,,,,,,,,,,,,,,,,,,,,,,,,,,,,,,,,657,29,M,Y,2022-10-25_18h18.22.999,Prime-Probe,2022.2.3,85.06974868697834,
Test,Visual_Stimuli/D_Down.png,Visual_Stimuli/T_Down.png,n,Congruent,Incongruent,4,2,4,2,10,,,,,,,,,,,,,,,,,0,1,1,1,,,,,,,,,,,,,,,,,,,,,,,,,,,,,,,,,,,,,,,,,,,,,,,,,,,,,0.0021587999999610474,615.2480492,615.2831805999999,615.3418001,616.1770265,616.2707622,,None,0,N,True,293.8192000001436,0.5077483000000029,1.4364649999999983,266,576795,577726,577992,Correct,617.7878656999999,,,,,,,,,,,,,,,,,,,,,,,,,,,,,,,,,,,,,,,,,,,,657,29,M,Y,2022-10-25_18h18.22.999,Prime-Probe,2022.2.3,85.06974868697834,
Test,Visual_Stimuli/D_Right.png,Visual_Stimuli/T_Left.png,f,Incongruent,Congruent,1,0,0,1,6,,,,,,,,,,,,,,,,,0,2,2,2,,,,,,,,,,,,,,,,,,,,,,,,,,,,,,,,,,,,,,,,,,,,,,,,,,,,,0.0009110000000873697,618.447406,618.4818567,618.5405836,619.3757062,619.4694313,620.9865239999999,None,0,F,True,293.778599999996,0.506418100000019,1.4352160999999342,266,579993,580924,581190,Correct,620.9865239999999,621.1864427999999,,,,,,,,,,,,,,,,,,,,,,,,,,,,,,,,,,,,,,,,,,,657,29,M,Y,2022-10-25_18h18.22.999,Prime-Probe,2022.2.3,85.06974868697834,
Test,Visual_Stimuli/D_Down.png,Visual_Stimuli/T_Up.png,j,Incongruent,Incongruent,4,2,2,4,8,,,,,,,,,,,,,,,,,0,3,3,3,,,,,,,,,,,,,,,,,,,,,,,,,,,,,,,,,,,,,,,,,,,,,,,,,,,,,-4.3900000036956044e-05,621.6453729,621.6805522,621.7391493999999,622.5865759999999,622.6799736,624.1852526,None,0,J,True,305.576000000201,0.5051034999999047,1.4339900999998463,278,583194,584122,584400,Correct,624.1852526,624.3851634999999,,,,,,,,,,,,,,,,,,,,,,,,,,,,,,,,,,,,,,,,,,,657,29,M,Y,2022-10-25_18h18.22.999,Prime-Probe,2022.2.3,85.06974868697834,
Test,Visual_Stimuli/D_Right.png,Visual_Stimuli/T_Right.png,g,Congruent,Incongruent,1,0,1,0,7,,,,,,,,,,,,,,,,,0,4,4,4,,,,,,,,,,,,,,,,,,,,,,,,,,,,,,,,,,,,,,,,,,,,,,,,,,,,,0.009441999999808104,624.8441229,624.8793384,624.9378998,625.7849441999999,625.8786995999999,627.3839771999999,None,0,G,True,317.25889999984247,0.5039818999998715,1.4444535000000087,299,586392,587332,587631,Correct,627.3839771999999,627.5838443,,,,,,,,,,,,,,,,,,,,,,,,,,,,,,,,,,,,,,,,,,,657,29,M,Y,2022-10-25_18h18.22.999,Prime-Probe,2022.2.3,85.06974868697834,
Test,Visual_Stimuli/D_Up.png,Visual_Stimuli/T_Up.png,j,Congruent,Congruent,2,4,2,4,8,,,,,,,,,,,,,,,,,0,5,5,5,,,,,,,,,,,,,,,,,,,,,,,,,,,,,,,,,,,,,,,,,,,,,,,,,,,,,0.008159099999829778,628.0428883,628.0780024000001,628.1365489,628.9835957999999,629.0773933999999,630.5827041,None,0,J,True,281.887099999949,0.5025096999997913,1.443232099999932,254,589590,590531,590785,Correct,630.5827041,630.7825886,,,,,,,,,,,,,,,,,,,,,,,,,,,,,,,,,,,,,,,,,,,657,29,M,Y,2022-10-25_18h18.22.999,Prime-Probe,2022.2.3,85.06974868697834,
